ExperimentName,Subject,AgeSubj,HandenesSubj,Procedure[Block],CueDur[Trial],RespExpTask1.CRESP[Trial],SOA[Trial],RespExpTask1_RESP_CORR,Correct (0/1),Accuracy,CueDur,RespTARGET.RT[Trial]
Exp1_SingleTask_TiTo_Subj17-24,1,22,sx,BlockProc1,100,m,0,m,1,566,SHORT,720
Exp1_SingleTask_TiTo_Subj17-24,1,22,sx,BlockProc1,100,z,100,z,1,,SHORT,648
Exp1_SingleTask_TiTo_Subj17-24,1,22,sx,BlockProc1,300,z,100,z,1,,LONG,685
Exp1_SingleTask_TiTo_Subj17-24,1,22,sx,BlockProc1,350,z,0,z,1,,LONG,480
Exp1_SingleTask_TiTo_Subj17-24,1,22,sx,BlockProc1,100,m,100,m,1,,SHORT,653
Exp1_SingleTask_TiTo_Subj17-24,1,22,sx,BlockProc1,150,m,0,m,1,,SHORT,616
Exp1_SingleTask_TiTo_Subj17-24,1,22,sx,BlockProc1,350,z,100,z,1,,LONG,588
Exp1_SingleTask_TiTo_Subj17-24,1,22,sx,BlockProc1,100,m,100,m,1,,SHORT,749
Exp1_SingleTask_TiTo_Subj17-24,1,22,sx,BlockProc1,100,z,0,z,1,,SHORT,646
Exp1_SingleTask_TiTo_Subj17-24,1,22,sx,BlockProc1,100,z,0,z,1,,SHORT,697
Exp1_SingleTask_TiTo_Subj17-24,1,22,sx,BlockProc1,300,m,0,z,0,,LONG,602
Exp1_SingleTask_TiTo_Subj17-24,1,22,sx,BlockProc1,300,m,0,m,1,,LONG,613
Exp1_SingleTask_TiTo_Subj17-24,1,22,sx,BlockProc1,150,z,0,z,1,,SHORT,749
Exp1_SingleTask_TiTo_Subj17-24,1,22,sx,BlockProc1,300,m,0,m,1,,LONG,659
Exp1_SingleTask_TiTo_Subj17-24,1,22,sx,BlockProc1,150,z,0,z,1,,SHORT,704
Exp1_SingleTask_TiTo_Subj17-24,1,22,sx,BlockProc1,100,z,100,z,1,,SHORT,807
Exp1_SingleTask_TiTo_Subj17-24,1,22,sx,BlockProc1,150,m,0,m,1,,SHORT,689
Exp1_SingleTask_TiTo_Subj17-24,1,22,sx,BlockProc1,350,z,100,z,1,,LONG,517
Exp1_SingleTask_TiTo_Subj17-24,1,22,sx,BlockProc1,150,m,0,m,1,,SHORT,717
Exp1_SingleTask_TiTo_Subj17-24,1,22,sx,BlockProc1,150,z,100,z,1,,SHORT,361
Exp1_SingleTask_TiTo_Subj17-24,1,22,sx,BlockProc1,300,z,100,z,1,,LONG,599
Exp1_SingleTask_TiTo_Subj17-24,1,22,sx,BlockProc1,100,m,0,m,1,,SHORT,727
Exp1_SingleTask_TiTo_Subj17-24,1,22,sx,BlockProc1,100,m,0,m,1,,SHORT,650
Exp1_SingleTask_TiTo_Subj17-24,1,22,sx,BlockProc1,100,z,0,z,1,,SHORT,316
Exp1_SingleTask_TiTo_Subj17-24,1,22,sx,BlockProc1,300,z,100,z,1,,LONG,636
Exp1_SingleTask_TiTo_Subj17-24,1,22,sx,BlockProc1,300,m,100,m,1,,LONG,540
Exp1_SingleTask_TiTo_Subj17-24,1,22,sx,BlockProc1,100,z,100,z,1,,SHORT,658
Exp1_SingleTask_TiTo_Subj17-24,1,22,sx,BlockProc1,350,m,100,m,1,,LONG,563
Exp1_SingleTask_TiTo_Subj17-24,1,22,sx,BlockProc1,300,m,100,m,1,,LONG,832
Exp1_SingleTask_TiTo_Subj17-24,1,22,sx,BlockProc1,350,m,100,m,1,,LONG,625
Exp1_SingleTask_TiTo_Subj17-24,1,22,sx,BlockProc1,300,z,0,z,1,,LONG,625
Exp1_SingleTask_TiTo_Subj17-24,1,22,sx,BlockProc1,350,z,100,z,1,,LONG,655
Exp1_SingleTask_TiTo_Subj17-24,1,22,sx,BlockProc1,350,m,0,m,1,,LONG,527
Exp1_SingleTask_TiTo_Subj17-24,1,22,sx,BlockProc1,350,z,0,z,1,,LONG,526
Exp1_SingleTask_TiTo_Subj17-24,1,22,sx,BlockProc1,150,z,0,z,1,,SHORT,276
Exp1_SingleTask_TiTo_Subj17-24,1,22,sx,BlockProc1,350,m,100,m,1,,LONG,425
Exp1_SingleTask_TiTo_Subj17-24,1,22,sx,BlockProc1,300,m,100,m,1,,LONG,406
Exp1_SingleTask_TiTo_Subj17-24,1,22,sx,BlockProc1,350,m,0,m,1,,LONG,524
Exp1_SingleTask_TiTo_Subj17-24,1,22,sx,BlockProc1,350,m,0,m,1,,LONG,564
Exp1_SingleTask_TiTo_Subj17-24,1,22,sx,BlockProc1,150,z,100,z,1,,SHORT,666
Exp1_SingleTask_TiTo_Subj17-24,1,22,sx,BlockProc1,150,m,100,m,1,,SHORT,682
Exp1_SingleTask_TiTo_Subj17-24,1,22,sx,BlockProc1,150,m,100,z,0,,SHORT,408
Exp1_SingleTask_TiTo_Subj17-24,1,22,sx,BlockProc1,300,z,0,z,1,,LONG,643
Exp1_SingleTask_TiTo_Subj17-24,1,22,sx,BlockProc1,100,m,100,m,1,,SHORT,731
Exp1_SingleTask_TiTo_Subj17-24,1,22,sx,BlockProc1,150,z,100,z,1,,SHORT,893
Exp1_SingleTask_TiTo_Subj17-24,1,22,sx,BlockProc1,150,m,100,m,1,,SHORT,384
Exp1_SingleTask_TiTo_Subj17-24,1,22,sx,BlockProc1,300,z,0,z,1,,LONG,604
Exp1_SingleTask_TiTo_Subj17-24,1,22,sx,BlockProc1,350,z,0,z,1,,LONG,596
Exp1_SingleTask_TiTo_Subj17-24,1,22,sx,BlockProc1,350,m,100,m,1,,LONG,624
Exp1_SingleTask_TiTo_Subj17-24,1,22,sx,BlockProc1,150,z,0,z,1,,SHORT,786
Exp1_SingleTask_TiTo_Subj17-24,1,22,sx,BlockProc1,100,z,100,z,1,,SHORT,912
Exp1_SingleTask_TiTo_Subj17-24,1,22,sx,BlockProc1,300,z,100,z,1,,LONG,664
Exp1_SingleTask_TiTo_Subj17-24,1,22,sx,BlockProc1,300,m,0,m,1,,LONG,538
Exp1_SingleTask_TiTo_Subj17-24,1,22,sx,BlockProc1,300,m,100,m,1,,LONG,255
Exp1_SingleTask_TiTo_Subj17-24,1,22,sx,BlockProc1,150,z,0,z,1,,SHORT,619
Exp1_SingleTask_TiTo_Subj17-24,1,22,sx,BlockProc1,150,z,0,z,1,,SHORT,307
Exp1_SingleTask_TiTo_Subj17-24,1,22,sx,BlockProc1,100,m,0,m,1,,SHORT,568
Exp1_SingleTask_TiTo_Subj17-24,1,22,sx,BlockProc1,150,z,100,z,1,,SHORT,676
Exp1_SingleTask_TiTo_Subj17-24,1,22,sx,BlockProc1,150,m,100,m,1,,SHORT,617
Exp1_SingleTask_TiTo_Subj17-24,1,22,sx,BlockProc1,100,z,100,z,1,,SHORT,708
Exp1_SingleTask_TiTo_Subj17-24,1,22,sx,BlockProc1,300,z,0,z,1,,LONG,574
Exp1_SingleTask_TiTo_Subj17-24,1,22,sx,BlockProc1,150,m,100,m,1,,SHORT,337
Exp1_SingleTask_TiTo_Subj17-24,1,22,sx,BlockProc1,300,m,100,m,1,,LONG,576
Exp1_SingleTask_TiTo_Subj17-24,1,22,sx,BlockProc1,300,m,0,{SPACE},0,,LONG,630
Exp1_SingleTask_TiTo_Subj17-24,1,22,sx,BlockProc1,350,m,100,m,1,,LONG,644
Exp1_SingleTask_TiTo_Subj17-24,1,22,sx,BlockProc1,100,m,0,m,1,,SHORT,614
Exp1_SingleTask_TiTo_Subj17-24,1,22,sx,BlockProc1,150,m,0,m,1,,SHORT,721
Exp1_SingleTask_TiTo_Subj17-24,1,22,sx,BlockProc1,100,z,0,z,1,,SHORT,658
Exp1_SingleTask_TiTo_Subj17-24,1,22,sx,BlockProc1,350,m,0,m,1,,LONG,508
Exp1_SingleTask_TiTo_Subj17-24,1,22,sx,BlockProc1,100,m,100,m,1,,SHORT,936
Exp1_SingleTask_TiTo_Subj17-24,1,22,sx,BlockProc1,350,z,100,z,1,,LONG,549
Exp1_SingleTask_TiTo_Subj17-24,1,22,sx,BlockProc1,100,z,0,z,1,,SHORT,1071
Exp1_SingleTask_TiTo_Subj17-24,1,22,sx,BlockProc1,350,m,100,m,1,,LONG,767
Exp1_SingleTask_TiTo_Subj17-24,1,22,sx,BlockProc1,350,m,0,m,1,,LONG,534
Exp1_SingleTask_TiTo_Subj17-24,1,22,sx,BlockProc1,350,z,100,z,1,,LONG,1376
Exp1_SingleTask_TiTo_Subj17-24,1,22,sx,BlockProc1,150,m,0,m,1,,SHORT,804
Exp1_SingleTask_TiTo_Subj17-24,1,22,sx,BlockProc1,350,m,0,m,1,,LONG,633
Exp1_SingleTask_TiTo_Subj17-24,1,22,sx,BlockProc1,350,z,100,z,1,,LONG,225
Exp1_SingleTask_TiTo_Subj17-24,1,22,sx,BlockProc1,300,m,0,m,1,,LONG,400
Exp1_SingleTask_TiTo_Subj17-24,1,22,sx,BlockProc1,150,z,100,z,1,,SHORT,760
Exp1_SingleTask_TiTo_Subj17-24,1,22,sx,BlockProc1,150,z,100,z,1,,SHORT,687
Exp1_SingleTask_TiTo_Subj17-24,1,22,sx,BlockProc1,100,z,0,z,1,,SHORT,695
Exp1_SingleTask_TiTo_Subj17-24,1,22,sx,BlockProc1,100,m,0,m,1,,SHORT,284
Exp1_SingleTask_TiTo_Subj17-24,1,22,sx,BlockProc1,150,m,100,m,1,,SHORT,555
Exp1_SingleTask_TiTo_Subj17-24,1,22,sx,BlockProc1,300,z,0,z,1,,LONG,653
Exp1_SingleTask_TiTo_Subj17-24,1,22,sx,BlockProc1,100,z,100,z,1,,SHORT,872
Exp1_SingleTask_TiTo_Subj17-24,1,22,sx,BlockProc1,100,m,100,m,1,,SHORT,310
Exp1_SingleTask_TiTo_Subj17-24,1,22,sx,BlockProc1,350,z,0,z,1,,LONG,673
Exp1_SingleTask_TiTo_Subj17-24,1,22,sx,BlockProc1,300,z,100,z,1,,LONG,653
Exp1_SingleTask_TiTo_Subj17-24,1,22,sx,BlockProc1,350,z,0,z,1,,LONG,373
Exp1_SingleTask_TiTo_Subj17-24,1,22,sx,BlockProc1,150,m,0,m,1,,SHORT,681
Exp1_SingleTask_TiTo_Subj17-24,1,22,sx,BlockProc1,350,z,0,z,1,,LONG,633
Exp1_SingleTask_TiTo_Subj17-24,1,22,sx,BlockProc1,300,z,100,z,1,,LONG,695
Exp1_SingleTask_TiTo_Subj17-24,1,22,sx,BlockProc1,300,z,0,z,1,,LONG,627
Exp1_SingleTask_TiTo_Subj17-24,1,22,sx,BlockProc1,300,m,100,m,1,,LONG,609
Exp1_SingleTask_TiTo_Subj17-24,1,22,sx,BlockProc1,100,m,100,m,1,,SHORT,513
Exp1_SingleTask_TiTo_Subj17-24,1,22,sx,BlockProc1,300,m,0,m,1,,LONG,667
Exp1_SingleTask_TiTo_Subj17-24,1,22,sx,BlockProc1,100,z,0,z,1,,SHORT,696
Exp1_SingleTask_TiTo_Subj17-24,1,22,sx,BlockProc1,350,m,0,m,1,,LONG,584
Exp1_SingleTask_TiTo_Subj17-24,1,22,sx,BlockProc1,350,m,100,space,0,,LONG,641
Exp1_SingleTask_TiTo_Subj17-24,1,22,sx,BlockProc1,150,z,0,{SPACE},0,,SHORT,736
Exp1_SingleTask_TiTo_Subj17-24,1,22,sx,BlockProc1,300,m,100,m,1,,LONG,762
Exp1_SingleTask_TiTo_Subj17-24,1,22,sx,BlockProc1,100,z,0,z,1,,SHORT,158
Exp1_SingleTask_TiTo_Subj17-24,1,22,sx,BlockProc1,100,z,100,z,1,,SHORT,888
Exp1_SingleTask_TiTo_Subj17-24,1,22,sx,BlockProc1,350,z,0,z,1,,LONG,679
Exp1_SingleTask_TiTo_Subj17-24,1,22,sx,BlockProc1,350,z,0,z,1,,LONG,688
Exp1_SingleTask_TiTo_Subj17-24,1,22,sx,BlockProc1,300,z,100,z,1,,LONG,408
Exp1_SingleTask_TiTo_Subj17-24,1,22,sx,BlockProc1,150,m,0,m,1,,SHORT,630
Exp1_SingleTask_TiTo_Subj17-24,1,22,sx,BlockProc1,150,z,0,z,1,,SHORT,733
Exp1_SingleTask_TiTo_Subj17-24,1,22,sx,BlockProc1,350,m,100,m,1,,LONG,505
Exp1_SingleTask_TiTo_Subj17-24,1,22,sx,BlockProc1,150,z,100,z,1,,SHORT,801
Exp1_SingleTask_TiTo_Subj17-24,1,22,sx,BlockProc1,350,m,0,m,1,,LONG,791
Exp1_SingleTask_TiTo_Subj17-24,1,22,sx,BlockProc1,100,z,0,z,1,,SHORT,782
Exp1_SingleTask_TiTo_Subj17-24,1,22,sx,BlockProc1,350,z,100,z,1,,LONG,714
Exp1_SingleTask_TiTo_Subj17-24,1,22,sx,BlockProc1,300,m,100,m,1,,LONG,601
Exp1_SingleTask_TiTo_Subj17-24,1,22,sx,BlockProc1,300,m,0,m,1,,LONG,687
Exp1_SingleTask_TiTo_Subj17-24,1,22,sx,BlockProc1,150,z,100,z,1,,SHORT,696
Exp1_SingleTask_TiTo_Subj17-24,1,22,sx,BlockProc1,300,m,0,m,1,,LONG,552
Exp1_SingleTask_TiTo_Subj17-24,1,22,sx,BlockProc1,150,m,100,m,1,,SHORT,774
Exp1_SingleTask_TiTo_Subj17-24,1,22,sx,BlockProc1,350,m,0,m,1,,LONG,594
Exp1_SingleTask_TiTo_Subj17-24,1,22,sx,BlockProc1,350,z,100,z,1,,LONG,634
Exp1_SingleTask_TiTo_Subj17-24,1,22,sx,BlockProc1,300,z,100,z,1,,LONG,1086
Exp1_SingleTask_TiTo_Subj17-24,1,22,sx,BlockProc1,150,m,0,m,1,,SHORT,665
Exp1_SingleTask_TiTo_Subj17-24,1,22,sx,BlockProc1,150,z,100,z,1,,SHORT,844
Exp1_SingleTask_TiTo_Subj17-24,1,22,sx,BlockProc1,300,z,0,z,1,,LONG,467
Exp1_SingleTask_TiTo_Subj17-24,1,22,sx,BlockProc1,100,m,0,m,1,,SHORT,756
Exp1_SingleTask_TiTo_Subj17-24,1,22,sx,BlockProc1,100,m,100,m,1,,SHORT,642
Exp1_SingleTask_TiTo_Subj17-24,1,22,sx,BlockProc1,150,m,0,m,1,,SHORT,640
Exp1_SingleTask_TiTo_Subj17-24,1,22,sx,BlockProc1,300,z,0,z,1,,LONG,582
Exp1_SingleTask_TiTo_Subj17-24,1,22,sx,BlockProc1,150,m,100,m,1,,SHORT,867
Exp1_SingleTask_TiTo_Subj17-24,1,22,sx,BlockProc1,100,z,100,z,1,,SHORT,798
Exp1_SingleTask_TiTo_Subj17-24,1,22,sx,BlockProc1,350,m,100,m,1,,LONG,782
Exp1_SingleTask_TiTo_Subj17-24,1,22,sx,BlockProc1,350,z,100,z,1,,LONG,723
Exp1_SingleTask_TiTo_Subj17-24,1,22,sx,BlockProc1,300,z,100,z,1,,LONG,937
Exp1_SingleTask_TiTo_Subj17-24,1,22,sx,BlockProc1,300,m,100,m,1,,LONG,849
Exp1_SingleTask_TiTo_Subj17-24,1,22,sx,BlockProc1,100,m,0,m,1,,SHORT,678
Exp1_SingleTask_TiTo_Subj17-24,1,22,sx,BlockProc1,100,z,100,z,1,,SHORT,801
Exp1_SingleTask_TiTo_Subj17-24,1,22,sx,BlockProc1,150,z,0,z,1,,SHORT,760
Exp1_SingleTask_TiTo_Subj17-24,1,22,sx,BlockProc1,100,m,0,m,1,,SHORT,709
Exp1_SingleTask_TiTo_Subj17-24,1,22,sx,BlockProc1,150,m,100,m,1,,SHORT,787
Exp1_SingleTask_TiTo_Subj17-24,1,22,sx,BlockProc1,100,m,100,m,1,,SHORT,773
Exp1_SingleTask_TiTo_Subj17-24,1,22,sx,BlockProc1,300,z,0,z,1,,LONG,675
Exp1_SingleTask_TiTo_Subj17-24,1,22,sx,BlockProc1,100,m,100,space,0,,SHORT,1011
Exp1_SingleTask_TiTo_Subj17-24,1,22,sx,BlockProc1,350,z,0,z,1,,LONG,803
Exp1_SingleTask_TiTo_Subj17-24,1,22,sx,BlockProc2,300,z,0,z,1,,LONG,894
Exp1_SingleTask_TiTo_Subj17-24,1,22,sx,BlockProc2,100,m,0,m,1,,SHORT,576
Exp1_SingleTask_TiTo_Subj17-24,1,22,sx,BlockProc2,350,z,100,z,1,,LONG,633
Exp1_SingleTask_TiTo_Subj17-24,1,22,sx,BlockProc2,300,z,100,z,1,,LONG,738
Exp1_SingleTask_TiTo_Subj17-24,1,22,sx,BlockProc2,150,m,100,m,1,,SHORT,722
Exp1_SingleTask_TiTo_Subj17-24,1,22,sx,BlockProc2,350,z,0,z,1,,LONG,734
Exp1_SingleTask_TiTo_Subj17-24,1,22,sx,BlockProc2,100,m,0,m,1,,SHORT,622
Exp1_SingleTask_TiTo_Subj17-24,1,22,sx,BlockProc2,100,z,0,z,1,,SHORT,799
Exp1_SingleTask_TiTo_Subj17-24,1,22,sx,BlockProc2,350,m,100,m,1,,LONG,648
Exp1_SingleTask_TiTo_Subj17-24,1,22,sx,BlockProc2,350,m,100,m,1,,LONG,684
Exp1_SingleTask_TiTo_Subj17-24,1,22,sx,BlockProc2,100,m,100,m,1,,SHORT,762
Exp1_SingleTask_TiTo_Subj17-24,1,22,sx,BlockProc2,350,z,100,z,1,,LONG,721
Exp1_SingleTask_TiTo_Subj17-24,1,22,sx,BlockProc2,300,z,100,z,1,,LONG,743
Exp1_SingleTask_TiTo_Subj17-24,1,22,sx,BlockProc2,150,m,0,m,1,,SHORT,649
Exp1_SingleTask_TiTo_Subj17-24,1,22,sx,BlockProc2,300,m,0,m,1,,LONG,678
Exp1_SingleTask_TiTo_Subj17-24,1,22,sx,BlockProc2,100,m,0,m,1,,SHORT,669
Exp1_SingleTask_TiTo_Subj17-24,1,22,sx,BlockProc2,300,z,0,z,1,,LONG,512
Exp1_SingleTask_TiTo_Subj17-24,1,22,sx,BlockProc2,150,m,0,m,1,,SHORT,1000
Exp1_SingleTask_TiTo_Subj17-24,1,22,sx,BlockProc2,100,m,100,m,1,,SHORT,670
Exp1_SingleTask_TiTo_Subj17-24,1,22,sx,BlockProc2,150,z,100,z,1,,SHORT,726
Exp1_SingleTask_TiTo_Subj17-24,1,22,sx,BlockProc2,350,m,0,m,1,,LONG,582
Exp1_SingleTask_TiTo_Subj17-24,1,22,sx,BlockProc2,150,z,100,z,1,,SHORT,884
Exp1_SingleTask_TiTo_Subj17-24,1,22,sx,BlockProc2,100,z,100,z,1,,SHORT,781
Exp1_SingleTask_TiTo_Subj17-24,1,22,sx,BlockProc2,300,m,100,m,1,,LONG,581
Exp1_SingleTask_TiTo_Subj17-24,1,22,sx,BlockProc2,150,m,100,m,1,,SHORT,754
Exp1_SingleTask_TiTo_Subj17-24,1,22,sx,BlockProc2,350,z,100,z,1,,LONG,626
Exp1_SingleTask_TiTo_Subj17-24,1,22,sx,BlockProc2,100,z,0,z,1,,SHORT,784
Exp1_SingleTask_TiTo_Subj17-24,1,22,sx,BlockProc2,300,m,0,m,1,,LONG,593
Exp1_SingleTask_TiTo_Subj17-24,1,22,sx,BlockProc2,100,z,0,z,1,,SHORT,689
Exp1_SingleTask_TiTo_Subj17-24,1,22,sx,BlockProc2,300,m,100,m,1,,LONG,648
Exp1_SingleTask_TiTo_Subj17-24,1,22,sx,BlockProc2,150,m,100,m,1,,SHORT,778
Exp1_SingleTask_TiTo_Subj17-24,1,22,sx,BlockProc2,150,z,0,z,1,,SHORT,684
Exp1_SingleTask_TiTo_Subj17-24,1,22,sx,BlockProc2,350,m,100,m,1,,LONG,527
Exp1_SingleTask_TiTo_Subj17-24,1,22,sx,BlockProc2,100,z,100,z,1,,SHORT,772
Exp1_SingleTask_TiTo_Subj17-24,1,22,sx,BlockProc2,150,z,0,z,1,,SHORT,648
Exp1_SingleTask_TiTo_Subj17-24,1,22,sx,BlockProc2,150,m,0,m,1,,SHORT,701
Exp1_SingleTask_TiTo_Subj17-24,1,22,sx,BlockProc2,100,m,100,m,1,,SHORT,717
Exp1_SingleTask_TiTo_Subj17-24,1,22,sx,BlockProc2,150,z,0,z,1,,SHORT,733
Exp1_SingleTask_TiTo_Subj17-24,1,22,sx,BlockProc2,300,m,100,m,1,,LONG,1004
Exp1_SingleTask_TiTo_Subj17-24,1,22,sx,BlockProc2,350,m,0,m,1,,LONG,653
Exp1_SingleTask_TiTo_Subj17-24,1,22,sx,BlockProc2,350,m,0,m,1,,LONG,629
Exp1_SingleTask_TiTo_Subj17-24,1,22,sx,BlockProc2,300,m,0,m,1,,LONG,599
Exp1_SingleTask_TiTo_Subj17-24,1,22,sx,BlockProc2,150,z,100,z,1,,SHORT,626
Exp1_SingleTask_TiTo_Subj17-24,1,22,sx,BlockProc2,350,z,0,z,1,,LONG,669
Exp1_SingleTask_TiTo_Subj17-24,1,22,sx,BlockProc2,100,z,100,z,1,,SHORT,770
Exp1_SingleTask_TiTo_Subj17-24,1,22,sx,BlockProc2,300,z,100,z,1,,LONG,684
Exp1_SingleTask_TiTo_Subj17-24,1,22,sx,BlockProc2,300,z,0,z,1,,LONG,738
Exp1_SingleTask_TiTo_Subj17-24,1,22,sx,BlockProc2,350,z,0,z,1,,LONG,255
Exp1_SingleTask_TiTo_Subj17-24,1,22,sx,BlockProc2,100,z,100,z,1,,SHORT,958
Exp1_SingleTask_TiTo_Subj17-24,1,22,sx,BlockProc2,100,z,100,z,1,,SHORT,0
Exp1_SingleTask_TiTo_Subj17-24,1,22,sx,BlockProc2,150,z,100,z,1,,SHORT,671
Exp1_SingleTask_TiTo_Subj17-24,1,22,sx,BlockProc2,300,m,0,m,1,,LONG,662
Exp1_SingleTask_TiTo_Subj17-24,1,22,sx,BlockProc2,150,m,100,m,1,,SHORT,340
Exp1_SingleTask_TiTo_Subj17-24,1,22,sx,BlockProc2,300,m,0,m,1,,LONG,422
Exp1_SingleTask_TiTo_Subj17-24,1,22,sx,BlockProc2,350,m,100,m,1,,LONG,456
Exp1_SingleTask_TiTo_Subj17-24,1,22,sx,BlockProc2,100,m,100,m,1,,SHORT,768
Exp1_SingleTask_TiTo_Subj17-24,1,22,sx,BlockProc2,300,z,0,z,1,,LONG,610
Exp1_SingleTask_TiTo_Subj17-24,1,22,sx,BlockProc2,150,m,0,m,1,,SHORT,631
Exp1_SingleTask_TiTo_Subj17-24,1,22,sx,BlockProc2,100,z,100,z,1,,SHORT,920
Exp1_SingleTask_TiTo_Subj17-24,1,22,sx,BlockProc2,150,m,100,m,1,,SHORT,713
Exp1_SingleTask_TiTo_Subj17-24,1,22,sx,BlockProc2,300,z,100,z,1,,LONG,680
Exp1_SingleTask_TiTo_Subj17-24,1,22,sx,BlockProc2,150,z,100,z,1,,SHORT,770
Exp1_SingleTask_TiTo_Subj17-24,1,22,sx,BlockProc2,300,z,0,z,1,,LONG,293
Exp1_SingleTask_TiTo_Subj17-24,1,22,sx,BlockProc2,150,z,0,z,1,,SHORT,293
Exp1_SingleTask_TiTo_Subj17-24,1,22,sx,BlockProc2,350,z,0,z,1,,LONG,595
Exp1_SingleTask_TiTo_Subj17-24,1,22,sx,BlockProc2,350,z,100,z,1,,LONG,463
Exp1_SingleTask_TiTo_Subj17-24,1,22,sx,BlockProc2,350,z,0,z,1,,LONG,578
Exp1_SingleTask_TiTo_Subj17-24,1,22,sx,BlockProc2,100,z,0,z,1,,SHORT,649
Exp1_SingleTask_TiTo_Subj17-24,1,22,sx,BlockProc2,350,z,0,z,1,,LONG,577
Exp1_SingleTask_TiTo_Subj17-24,1,22,sx,BlockProc2,300,z,0,z,1,,LONG,406
Exp1_SingleTask_TiTo_Subj17-24,1,22,sx,BlockProc2,150,z,0,z,1,,SHORT,714
Exp1_SingleTask_TiTo_Subj17-24,1,22,sx,BlockProc2,100,m,100,m,1,,SHORT,590
Exp1_SingleTask_TiTo_Subj17-24,1,22,sx,BlockProc2,300,z,100,z,1,,LONG,567
Exp1_SingleTask_TiTo_Subj17-24,1,22,sx,BlockProc2,100,m,0,m,1,,SHORT,413
Exp1_SingleTask_TiTo_Subj17-24,1,22,sx,BlockProc2,300,m,100,m,1,,LONG,338
Exp1_SingleTask_TiTo_Subj17-24,1,22,sx,BlockProc2,300,m,100,m,1,,LONG,772
Exp1_SingleTask_TiTo_Subj17-24,1,22,sx,BlockProc2,350,m,100,m,1,,LONG,563
Exp1_SingleTask_TiTo_Subj17-24,1,22,sx,BlockProc2,350,z,100,z,1,,LONG,570
Exp1_SingleTask_TiTo_Subj17-24,1,22,sx,BlockProc2,350,m,0,m,1,,LONG,664
Exp1_SingleTask_TiTo_Subj17-24,1,22,sx,BlockProc2,350,m,0,m,1,,LONG,604
Exp1_SingleTask_TiTo_Subj17-24,1,22,sx,BlockProc2,100,m,100,m,1,,SHORT,696
Exp1_SingleTask_TiTo_Subj17-24,1,22,sx,BlockProc2,350,z,100,z,1,,LONG,635
Exp1_SingleTask_TiTo_Subj17-24,1,22,sx,BlockProc2,150,m,100,m,1,,SHORT,656
Exp1_SingleTask_TiTo_Subj17-24,1,22,sx,BlockProc2,100,m,0,m,1,,SHORT,639
Exp1_SingleTask_TiTo_Subj17-24,1,22,sx,BlockProc2,100,m,0,m,1,,SHORT,604
Exp1_SingleTask_TiTo_Subj17-24,1,22,sx,BlockProc2,150,z,100,z,1,,SHORT,673
Exp1_SingleTask_TiTo_Subj17-24,1,22,sx,BlockProc2,300,m,100,m,1,,LONG,671
Exp1_SingleTask_TiTo_Subj17-24,1,22,sx,BlockProc2,100,z,0,z,1,,SHORT,500
Exp1_SingleTask_TiTo_Subj17-24,1,22,sx,BlockProc2,100,z,0,z,1,,SHORT,447
Exp1_SingleTask_TiTo_Subj17-24,1,22,sx,BlockProc2,150,m,0,m,1,,SHORT,521
Exp1_SingleTask_TiTo_Subj17-24,1,22,sx,BlockProc2,350,m,0,m,1,,LONG,531
Exp1_SingleTask_TiTo_Subj17-24,1,22,sx,BlockProc2,150,z,0,z,1,,SHORT,288
Exp1_SingleTask_TiTo_Subj17-24,1,22,sx,BlockProc2,300,m,0,m,1,,LONG,299
Exp1_SingleTask_TiTo_Subj17-24,1,22,sx,BlockProc2,300,z,100,z,1,,LONG,672
Exp1_SingleTask_TiTo_Subj17-24,1,22,sx,BlockProc2,150,m,0,m,1,,SHORT,597
Exp1_SingleTask_TiTo_Subj17-24,1,22,sx,BlockProc2,350,m,100,m,1,,LONG,607
Exp1_SingleTask_TiTo_Subj17-24,1,22,sx,BlockProc2,150,z,0,z,1,,SHORT,643
Exp1_SingleTask_TiTo_Subj17-24,1,22,sx,BlockProc2,350,m,100,m,1,,LONG,543
Exp1_SingleTask_TiTo_Subj17-24,1,22,sx,BlockProc2,300,m,100,m,1,,LONG,656
Exp1_SingleTask_TiTo_Subj17-24,1,22,sx,BlockProc2,100,m,100,m,1,,SHORT,295
Exp1_SingleTask_TiTo_Subj17-24,1,22,sx,BlockProc2,350,m,100,m,1,,LONG,561
Exp1_SingleTask_TiTo_Subj17-24,1,22,sx,BlockProc2,300,z,0,z,1,,LONG,539
Exp1_SingleTask_TiTo_Subj17-24,1,22,sx,BlockProc2,300,z,100,z,1,,LONG,365
Exp1_SingleTask_TiTo_Subj17-24,1,22,sx,BlockProc2,300,z,0,z,1,,LONG,552
Exp1_SingleTask_TiTo_Subj17-24,1,22,sx,BlockProc2,150,z,100,z,1,,SHORT,703
Exp1_SingleTask_TiTo_Subj17-24,1,22,sx,BlockProc2,150,z,100,z,1,,SHORT,506
Exp1_SingleTask_TiTo_Subj17-24,1,22,sx,BlockProc2,100,z,0,z,1,,SHORT,259
Exp1_SingleTask_TiTo_Subj17-24,1,22,sx,BlockProc2,350,z,0,z,1,,LONG,565
Exp1_SingleTask_TiTo_Subj17-24,1,22,sx,BlockProc2,150,m,0,m,1,,SHORT,605
Exp1_SingleTask_TiTo_Subj17-24,1,22,sx,BlockProc2,350,z,100,z,1,,LONG,570
Exp1_SingleTask_TiTo_Subj17-24,1,22,sx,BlockProc2,150,z,0,z,1,,SHORT,580
Exp1_SingleTask_TiTo_Subj17-24,1,22,sx,BlockProc2,100,m,100,m,1,,SHORT,685
Exp1_SingleTask_TiTo_Subj17-24,1,22,sx,BlockProc2,350,z,100,z,1,,LONG,551
Exp1_SingleTask_TiTo_Subj17-24,1,22,sx,BlockProc2,100,z,100,z,1,,SHORT,634
Exp1_SingleTask_TiTo_Subj17-24,1,22,sx,BlockProc2,300,m,100,m,1,,LONG,504
Exp1_SingleTask_TiTo_Subj17-24,1,22,sx,BlockProc2,300,z,100,z,1,,LONG,594
Exp1_SingleTask_TiTo_Subj17-24,1,22,sx,BlockProc2,150,m,100,m,1,,SHORT,590
Exp1_SingleTask_TiTo_Subj17-24,1,22,sx,BlockProc2,300,z,100,z,1,,LONG,541
Exp1_SingleTask_TiTo_Subj17-24,1,22,sx,BlockProc2,350,m,0,m,1,,LONG,748
Exp1_SingleTask_TiTo_Subj17-24,1,22,sx,BlockProc2,300,m,100,m,1,,LONG,683
Exp1_SingleTask_TiTo_Subj17-24,1,22,sx,BlockProc2,100,m,0,m,1,,SHORT,711
Exp1_SingleTask_TiTo_Subj17-24,1,22,sx,BlockProc2,100,z,100,z,1,,SHORT,776
Exp1_SingleTask_TiTo_Subj17-24,1,22,sx,BlockProc2,350,z,0,z,1,,LONG,571
Exp1_SingleTask_TiTo_Subj17-24,1,22,sx,BlockProc2,150,m,0,m,1,,SHORT,770
Exp1_SingleTask_TiTo_Subj17-24,1,22,sx,BlockProc2,100,m,0,m,1,,SHORT,602
Exp1_SingleTask_TiTo_Subj17-24,1,22,sx,BlockProc2,300,m,0,m,1,,LONG,735
Exp1_SingleTask_TiTo_Subj17-24,1,22,sx,BlockProc2,300,m,0,m,1,,LONG,549
Exp1_SingleTask_TiTo_Subj17-24,1,22,sx,BlockProc2,350,z,0,z,1,,LONG,569
Exp1_SingleTask_TiTo_Subj17-24,1,22,sx,BlockProc2,150,m,0,m,1,,SHORT,751
Exp1_SingleTask_TiTo_Subj17-24,1,22,sx,BlockProc2,100,z,0,z,1,,SHORT,692
Exp1_SingleTask_TiTo_Subj17-24,1,22,sx,BlockProc2,350,m,0,m,1,,LONG,505
Exp1_SingleTask_TiTo_Subj17-24,1,22,sx,BlockProc2,100,z,0,z,1,,SHORT,728
Exp1_SingleTask_TiTo_Subj17-24,1,22,sx,BlockProc2,300,m,0,m,1,,LONG,567
Exp1_SingleTask_TiTo_Subj17-24,1,22,sx,BlockProc2,350,z,100,z,1,,LONG,530
Exp1_SingleTask_TiTo_Subj17-24,1,22,sx,BlockProc2,100,m,100,m,1,,SHORT,704
Exp1_SingleTask_TiTo_Subj17-24,1,22,sx,BlockProc2,150,z,100,z,1,,SHORT,726
Exp1_SingleTask_TiTo_Subj17-24,1,22,sx,BlockProc2,350,m,0,m,1,,LONG,503
Exp1_SingleTask_TiTo_Subj17-24,1,22,sx,BlockProc2,150,z,0,z,1,,SHORT,690
Exp1_SingleTask_TiTo_Subj17-24,1,22,sx,BlockProc2,350,m,100,m,1,,LONG,707
Exp1_SingleTask_TiTo_Subj17-24,1,22,sx,BlockProc2,150,m,100,m,1,,SHORT,1007
Exp1_SingleTask_TiTo_Subj17-24,1,22,sx,BlockProc2,100,m,0,m,1,,SHORT,1047
Exp1_SingleTask_TiTo_Subj17-24,1,22,sx,BlockProc2,300,z,0,z,1,,LONG,580
Exp1_SingleTask_TiTo_Subj17-24,1,22,sx,BlockProc2,100,z,100,z,1,,SHORT,675
Exp1_SingleTask_TiTo_Subj17-24,1,22,sx,BlockProc2,150,m,100,m,1,,SHORT,717
Exp1_SingleTask_TiTo_Subj17-24,1,22,sx,BlockProc3,100,m,0,m,1,,SHORT,315
Exp1_SingleTask_TiTo_Subj17-24,1,22,sx,BlockProc3,150,z,0,z,1,,SHORT,585
Exp1_SingleTask_TiTo_Subj17-24,1,22,sx,BlockProc3,150,z,0,z,1,,SHORT,617
Exp1_SingleTask_TiTo_Subj17-24,1,22,sx,BlockProc3,350,z,100,z,1,,LONG,602
Exp1_SingleTask_TiTo_Subj17-24,1,22,sx,BlockProc3,300,m,0,m,1,,LONG,448
Exp1_SingleTask_TiTo_Subj17-24,1,22,sx,BlockProc3,150,m,100,m,1,,SHORT,576
Exp1_SingleTask_TiTo_Subj17-24,1,22,sx,BlockProc3,350,m,0,z,0,,LONG,557
Exp1_SingleTask_TiTo_Subj17-24,1,22,sx,BlockProc3,150,m,0,m,1,,SHORT,682
Exp1_SingleTask_TiTo_Subj17-24,1,22,sx,BlockProc3,100,m,100,m,1,,SHORT,440
Exp1_SingleTask_TiTo_Subj17-24,1,22,sx,BlockProc3,150,m,100,m,1,,SHORT,608
Exp1_SingleTask_TiTo_Subj17-24,1,22,sx,BlockProc3,150,z,100,z,1,,SHORT,623
Exp1_SingleTask_TiTo_Subj17-24,1,22,sx,BlockProc3,300,m,0,m,1,,LONG,601
Exp1_SingleTask_TiTo_Subj17-24,1,22,sx,BlockProc3,150,z,100,z,1,,SHORT,710
Exp1_SingleTask_TiTo_Subj17-24,1,22,sx,BlockProc3,350,z,100,z,1,,LONG,606
Exp1_SingleTask_TiTo_Subj17-24,1,22,sx,BlockProc3,100,z,0,z,1,,SHORT,664
Exp1_SingleTask_TiTo_Subj17-24,1,22,sx,BlockProc3,300,z,100,z,1,,LONG,637
Exp1_SingleTask_TiTo_Subj17-24,1,22,sx,BlockProc3,350,z,0,z,1,,LONG,597
Exp1_SingleTask_TiTo_Subj17-24,1,22,sx,BlockProc3,150,z,0,z,1,,SHORT,623
Exp1_SingleTask_TiTo_Subj17-24,1,22,sx,BlockProc3,300,z,100,z,1,,LONG,597
Exp1_SingleTask_TiTo_Subj17-24,1,22,sx,BlockProc3,300,m,100,m,1,,LONG,605
Exp1_SingleTask_TiTo_Subj17-24,1,22,sx,BlockProc3,100,m,0,m,1,,SHORT,683
Exp1_SingleTask_TiTo_Subj17-24,1,22,sx,BlockProc3,100,z,100,z,1,,SHORT,656
Exp1_SingleTask_TiTo_Subj17-24,1,22,sx,BlockProc3,100,m,100,m,1,,SHORT,614
Exp1_SingleTask_TiTo_Subj17-24,1,22,sx,BlockProc3,350,m,100,z,0,,LONG,757
Exp1_SingleTask_TiTo_Subj17-24,1,22,sx,BlockProc3,150,z,100,z,1,,SHORT,607
Exp1_SingleTask_TiTo_Subj17-24,1,22,sx,BlockProc3,300,z,100,z,1,,LONG,228
Exp1_SingleTask_TiTo_Subj17-24,1,22,sx,BlockProc3,300,m,100,m,1,,LONG,605
Exp1_SingleTask_TiTo_Subj17-24,1,22,sx,BlockProc3,350,z,0,z,1,,LONG,556
Exp1_SingleTask_TiTo_Subj17-24,1,22,sx,BlockProc3,350,m,0,m,1,,LONG,516
Exp1_SingleTask_TiTo_Subj17-24,1,22,sx,BlockProc3,150,m,0,m,1,,SHORT,646
Exp1_SingleTask_TiTo_Subj17-24,1,22,sx,BlockProc3,300,z,0,z,1,,LONG,584
Exp1_SingleTask_TiTo_Subj17-24,1,22,sx,BlockProc3,300,m,0,m,1,,LONG,598
Exp1_SingleTask_TiTo_Subj17-24,1,22,sx,BlockProc3,100,z,0,z,1,,SHORT,650
Exp1_SingleTask_TiTo_Subj17-24,1,22,sx,BlockProc3,100,z,0,z,1,,SHORT,687
Exp1_SingleTask_TiTo_Subj17-24,1,22,sx,BlockProc3,300,z,0,z,1,,LONG,592
Exp1_SingleTask_TiTo_Subj17-24,1,22,sx,BlockProc3,350,m,100,m,1,,LONG,608
Exp1_SingleTask_TiTo_Subj17-24,1,22,sx,BlockProc3,150,m,100,m,1,,SHORT,733
Exp1_SingleTask_TiTo_Subj17-24,1,22,sx,BlockProc3,100,z,100,z,1,,SHORT,729
Exp1_SingleTask_TiTo_Subj17-24,1,22,sx,BlockProc3,100,z,100,z,1,,SHORT,758
Exp1_SingleTask_TiTo_Subj17-24,1,22,sx,BlockProc3,350,z,0,z,1,,LONG,510
Exp1_SingleTask_TiTo_Subj17-24,1,22,sx,BlockProc3,300,m,100,m,1,,LONG,281
Exp1_SingleTask_TiTo_Subj17-24,1,22,sx,BlockProc3,100,m,100,m,1,,SHORT,677
Exp1_SingleTask_TiTo_Subj17-24,1,22,sx,BlockProc3,150,m,0,m,1,,SHORT,607
Exp1_SingleTask_TiTo_Subj17-24,1,22,sx,BlockProc3,350,m,100,m,1,,LONG,528
Exp1_SingleTask_TiTo_Subj17-24,1,22,sx,BlockProc3,300,z,0,z,1,,LONG,521
Exp1_SingleTask_TiTo_Subj17-24,1,22,sx,BlockProc3,350,z,100,z,1,,LONG,644
Exp1_SingleTask_TiTo_Subj17-24,1,22,sx,BlockProc3,100,m,0,m,1,,SHORT,630
Exp1_SingleTask_TiTo_Subj17-24,1,22,sx,BlockProc3,350,m,0,m,1,,LONG,540
Exp1_SingleTask_TiTo_Subj17-24,1,22,sx,BlockProc3,100,m,0,m,1,,SHORT,653
Exp1_SingleTask_TiTo_Subj17-24,1,22,sx,BlockProc3,100,m,100,m,1,,SHORT,773
Exp1_SingleTask_TiTo_Subj17-24,1,22,sx,BlockProc3,100,z,0,z,1,,SHORT,627
Exp1_SingleTask_TiTo_Subj17-24,1,22,sx,BlockProc3,350,z,0,z,1,,LONG,493
Exp1_SingleTask_TiTo_Subj17-24,1,22,sx,BlockProc3,300,z,100,z,1,,LONG,576
Exp1_SingleTask_TiTo_Subj17-24,1,22,sx,BlockProc3,350,z,100,z,1,,LONG,641
Exp1_SingleTask_TiTo_Subj17-24,1,22,sx,BlockProc3,300,m,0,m,1,,LONG,609
Exp1_SingleTask_TiTo_Subj17-24,1,22,sx,BlockProc3,300,z,100,z,1,,LONG,661
Exp1_SingleTask_TiTo_Subj17-24,1,22,sx,BlockProc3,350,m,0,m,1,,LONG,760
Exp1_SingleTask_TiTo_Subj17-24,1,22,sx,BlockProc3,300,m,0,m,1,,LONG,596
Exp1_SingleTask_TiTo_Subj17-24,1,22,sx,BlockProc3,300,m,0,m,1,,LONG,628
Exp1_SingleTask_TiTo_Subj17-24,1,22,sx,BlockProc3,300,m,100,m,1,,LONG,639
Exp1_SingleTask_TiTo_Subj17-24,1,22,sx,BlockProc3,150,z,0,z,1,,SHORT,1062
Exp1_SingleTask_TiTo_Subj17-24,1,22,sx,BlockProc3,350,m,100,m,1,,LONG,1046
Exp1_SingleTask_TiTo_Subj17-24,1,22,sx,BlockProc3,100,m,0,m,1,,SHORT,782
Exp1_SingleTask_TiTo_Subj17-24,1,22,sx,BlockProc3,100,z,100,z,1,,SHORT,990
Exp1_SingleTask_TiTo_Subj17-24,1,22,sx,BlockProc3,100,z,100,z,1,,SHORT,300
Exp1_SingleTask_TiTo_Subj17-24,1,22,sx,BlockProc3,150,m,100,m,1,,SHORT,600
Exp1_SingleTask_TiTo_Subj17-24,1,22,sx,BlockProc3,300,z,0,z,1,,LONG,551
Exp1_SingleTask_TiTo_Subj17-24,1,22,sx,BlockProc3,100,z,0,z,1,,SHORT,742
Exp1_SingleTask_TiTo_Subj17-24,1,22,sx,BlockProc3,150,z,100,z,1,,SHORT,781
Exp1_SingleTask_TiTo_Subj17-24,1,22,sx,BlockProc3,150,z,0,z,1,,SHORT,646
Exp1_SingleTask_TiTo_Subj17-24,1,22,sx,BlockProc3,350,m,0,m,1,,LONG,555
Exp1_SingleTask_TiTo_Subj17-24,1,22,sx,BlockProc3,100,m,0,m,1,,SHORT,727
Exp1_SingleTask_TiTo_Subj17-24,1,22,sx,BlockProc3,300,z,0,z,1,,LONG,574
Exp1_SingleTask_TiTo_Subj17-24,1,22,sx,BlockProc3,100,m,100,m,1,,SHORT,676
Exp1_SingleTask_TiTo_Subj17-24,1,22,sx,BlockProc3,150,z,100,z,1,,SHORT,722
Exp1_SingleTask_TiTo_Subj17-24,1,22,sx,BlockProc3,350,m,0,m,1,,LONG,297
Exp1_SingleTask_TiTo_Subj17-24,1,22,sx,BlockProc3,100,z,0,z,1,,SHORT,1107
Exp1_SingleTask_TiTo_Subj17-24,1,22,sx,BlockProc3,350,m,100,m,1,,LONG,347
Exp1_SingleTask_TiTo_Subj17-24,1,22,sx,BlockProc3,150,m,0,m,1,,SHORT,923
Exp1_SingleTask_TiTo_Subj17-24,1,22,sx,BlockProc3,150,z,100,z,1,,SHORT,714
Exp1_SingleTask_TiTo_Subj17-24,1,22,sx,BlockProc3,150,z,0,z,1,,SHORT,769
Exp1_SingleTask_TiTo_Subj17-24,1,22,sx,BlockProc3,350,m,100,m,1,,LONG,548
Exp1_SingleTask_TiTo_Subj17-24,1,22,sx,BlockProc3,100,z,100,z,1,,SHORT,679
Exp1_SingleTask_TiTo_Subj17-24,1,22,sx,BlockProc3,300,z,100,z,1,,LONG,693
Exp1_SingleTask_TiTo_Subj17-24,1,22,sx,BlockProc3,100,m,100,m,1,,SHORT,928
Exp1_SingleTask_TiTo_Subj17-24,1,22,sx,BlockProc3,150,m,0,m,1,,SHORT,653
Exp1_SingleTask_TiTo_Subj17-24,1,22,sx,BlockProc3,350,z,100,z,1,,LONG,666
Exp1_SingleTask_TiTo_Subj17-24,1,22,sx,BlockProc3,350,z,0,z,1,,LONG,879
Exp1_SingleTask_TiTo_Subj17-24,1,22,sx,BlockProc3,350,z,0,z,1,,LONG,604
Exp1_SingleTask_TiTo_Subj17-24,1,22,sx,BlockProc3,150,m,100,m,1,,SHORT,725
Exp1_SingleTask_TiTo_Subj17-24,1,22,sx,BlockProc3,350,z,100,z,1,,LONG,337
Exp1_SingleTask_TiTo_Subj17-24,1,22,sx,BlockProc3,300,m,100,m,1,,LONG,673
Exp1_SingleTask_TiTo_Subj17-24,1,22,sx,BlockProc3,150,m,0,m,1,,SHORT,745
Exp1_SingleTask_TiTo_Subj17-24,1,22,sx,BlockProc3,300,m,100,m,1,,LONG,633
Exp1_SingleTask_TiTo_Subj17-24,1,22,sx,BlockProc3,300,z,0,z,1,,LONG,546
Exp1_SingleTask_TiTo_Subj17-24,1,22,sx,BlockProc3,150,m,100,m,1,,SHORT,568
Exp1_SingleTask_TiTo_Subj17-24,1,22,sx,BlockProc3,300,m,100,m,1,,LONG,539
Exp1_SingleTask_TiTo_Subj17-24,1,22,sx,BlockProc3,150,z,100,z,1,,SHORT,649
Exp1_SingleTask_TiTo_Subj17-24,1,22,sx,BlockProc3,300,z,100,z,1,,LONG,593
Exp1_SingleTask_TiTo_Subj17-24,1,22,sx,BlockProc3,350,z,0,z,1,,LONG,693
Exp1_SingleTask_TiTo_Subj17-24,1,22,sx,BlockProc3,350,z,0,z,1,,LONG,608
Exp1_SingleTask_TiTo_Subj17-24,1,22,sx,BlockProc3,300,z,0,z,1,,LONG,577
Exp1_SingleTask_TiTo_Subj17-24,1,22,sx,BlockProc3,300,z,100,z,1,,LONG,309
Exp1_SingleTask_TiTo_Subj17-24,1,22,sx,BlockProc3,100,z,100,z,1,,SHORT,374
Exp1_SingleTask_TiTo_Subj17-24,1,22,sx,BlockProc3,150,m,100,m,1,,SHORT,914
Exp1_SingleTask_TiTo_Subj17-24,1,22,sx,BlockProc3,350,m,0,m,1,,LONG,647
Exp1_SingleTask_TiTo_Subj17-24,1,22,sx,BlockProc3,300,m,100,m,1,,LONG,400
Exp1_SingleTask_TiTo_Subj17-24,1,22,sx,BlockProc3,350,m,0,m,1,,LONG,548
Exp1_SingleTask_TiTo_Subj17-24,1,22,sx,BlockProc3,300,z,100,z,1,,LONG,587
Exp1_SingleTask_TiTo_Subj17-24,1,22,sx,BlockProc3,150,m,0,m,1,,SHORT,1067
Exp1_SingleTask_TiTo_Subj17-24,1,22,sx,BlockProc3,100,m,0,m,1,,SHORT,804
Exp1_SingleTask_TiTo_Subj17-24,1,22,sx,BlockProc3,100,z,0,z,1,,SHORT,639
Exp1_SingleTask_TiTo_Subj17-24,1,22,sx,BlockProc3,100,m,0,m,1,,SHORT,661
Exp1_SingleTask_TiTo_Subj17-24,1,22,sx,BlockProc3,150,m,0,m,1,,SHORT,650
Exp1_SingleTask_TiTo_Subj17-24,1,22,sx,BlockProc3,350,m,0,m,1,,LONG,610
Exp1_SingleTask_TiTo_Subj17-24,1,22,sx,BlockProc3,150,z,0,z,1,,SHORT,1097
Exp1_SingleTask_TiTo_Subj17-24,1,22,sx,BlockProc3,150,z,0,z,1,,SHORT,635
Exp1_SingleTask_TiTo_Subj17-24,1,22,sx,BlockProc3,300,m,0,m,1,,LONG,571
Exp1_SingleTask_TiTo_Subj17-24,1,22,sx,BlockProc3,350,m,100,m,1,,LONG,656
Exp1_SingleTask_TiTo_Subj17-24,1,22,sx,BlockProc3,350,m,100,space,0,,LONG,310
Exp1_SingleTask_TiTo_Subj17-24,1,22,sx,BlockProc3,150,m,100,m,1,,SHORT,624
Exp1_SingleTask_TiTo_Subj17-24,1,22,sx,BlockProc3,100,z,0,z,1,,SHORT,612
Exp1_SingleTask_TiTo_Subj17-24,1,22,sx,BlockProc3,350,m,100,m,1,,LONG,687
Exp1_SingleTask_TiTo_Subj17-24,1,22,sx,BlockProc3,100,z,100,z,1,,SHORT,783
Exp1_SingleTask_TiTo_Subj17-24,1,22,sx,BlockProc3,300,m,0,m,1,,LONG,757
Exp1_SingleTask_TiTo_Subj17-24,1,22,sx,BlockProc3,300,z,0,z,1,,LONG,654
Exp1_SingleTask_TiTo_Subj17-24,1,22,sx,BlockProc3,150,z,100,z,1,,SHORT,744
Exp1_SingleTask_TiTo_Subj17-24,1,22,sx,BlockProc3,300,m,0,m,1,,LONG,646
Exp1_SingleTask_TiTo_Subj17-24,1,22,sx,BlockProc3,100,z,0,z,1,,SHORT,668
Exp1_SingleTask_TiTo_Subj17-24,1,22,sx,BlockProc3,350,z,100,z,1,,LONG,549
Exp1_SingleTask_TiTo_Subj17-24,1,22,sx,BlockProc3,350,z,100,z,1,,LONG,505
Exp1_SingleTask_TiTo_Subj17-24,1,22,sx,BlockProc3,100,m,100,m,1,,SHORT,553
Exp1_SingleTask_TiTo_Subj17-24,1,22,sx,BlockProc3,350,z,100,z,1,,LONG,652
Exp1_SingleTask_TiTo_Subj17-24,1,22,sx,BlockProc3,100,m,100,m,1,,SHORT,873
Exp1_SingleTask_TiTo_Subj17-24,1,22,sx,BlockProc3,300,z,0,z,1,,LONG,1105
Exp1_SingleTask_TiTo_Subj17-24,1,22,sx,BlockProc3,300,m,100,m,1,,LONG,713
Exp1_SingleTask_TiTo_Subj17-24,1,22,sx,BlockProc3,100,m,0,m,1,,SHORT,837
Exp1_SingleTask_TiTo_Subj17-24,1,22,sx,BlockProc3,350,z,0,z,1,,LONG,621
Exp1_SingleTask_TiTo_Subj17-24,1,22,sx,BlockProc3,100,m,100,m,1,,SHORT,756
Exp1_SingleTask_TiTo_Subj17-24,1,22,sx,BlockProc3,150,z,0,z,1,,SHORT,662
Exp1_SingleTask_TiTo_Subj17-24,1,22,sx,BlockProc3,100,z,100,z,1,,SHORT,780
Exp1_SingleTask_TiTo_Subj17-24,1,22,sx,BlockProc3,150,m,100,m,1,,SHORT,413
Exp1_SingleTask_TiTo_Subj17-24,1,22,sx,BlockProc3,150,z,100,z,1,,SHORT,914
Exp1_SingleTask_TiTo_Subj17-24,1,22,sx,BlockProc3,150,m,0,m,1,,SHORT,542
Exp1_SingleTask_TiTo_Subj17-24,1,22,sx,BlockProc4,100,z,100,z,1,,SHORT,631
Exp1_SingleTask_TiTo_Subj17-24,1,22,sx,BlockProc4,100,z,0,z,1,,SHORT,159
Exp1_SingleTask_TiTo_Subj17-24,1,22,sx,BlockProc4,300,m,0,m,1,,LONG,566
Exp1_SingleTask_TiTo_Subj17-24,1,22,sx,BlockProc4,150,m,100,m,1,,SHORT,724
Exp1_SingleTask_TiTo_Subj17-24,1,22,sx,BlockProc4,150,m,0,m,1,,SHORT,591
Exp1_SingleTask_TiTo_Subj17-24,1,22,sx,BlockProc4,150,m,0,m,1,,SHORT,524
Exp1_SingleTask_TiTo_Subj17-24,1,22,sx,BlockProc4,350,m,0,m,1,,LONG,540
Exp1_SingleTask_TiTo_Subj17-24,1,22,sx,BlockProc4,350,m,100,m,1,,LONG,563
Exp1_SingleTask_TiTo_Subj17-24,1,22,sx,BlockProc4,300,z,100,z,1,,LONG,548
Exp1_SingleTask_TiTo_Subj17-24,1,22,sx,BlockProc4,350,z,0,z,1,,LONG,507
Exp1_SingleTask_TiTo_Subj17-24,1,22,sx,BlockProc4,150,z,100,z,1,,SHORT,708
Exp1_SingleTask_TiTo_Subj17-24,1,22,sx,BlockProc4,100,z,0,z,1,,SHORT,756
Exp1_SingleTask_TiTo_Subj17-24,1,22,sx,BlockProc4,350,z,100,z,1,,LONG,686
Exp1_SingleTask_TiTo_Subj17-24,1,22,sx,BlockProc4,100,m,0,m,1,,SHORT,672
Exp1_SingleTask_TiTo_Subj17-24,1,22,sx,BlockProc4,300,z,0,z,1,,LONG,943
Exp1_SingleTask_TiTo_Subj17-24,1,22,sx,BlockProc4,150,z,0,z,1,,SHORT,653
Exp1_SingleTask_TiTo_Subj17-24,1,22,sx,BlockProc4,350,m,100,m,1,,LONG,655
Exp1_SingleTask_TiTo_Subj17-24,1,22,sx,BlockProc4,150,m,0,m,1,,SHORT,652
Exp1_SingleTask_TiTo_Subj17-24,1,22,sx,BlockProc4,350,m,0,m,1,,LONG,560
Exp1_SingleTask_TiTo_Subj17-24,1,22,sx,BlockProc4,100,m,0,m,1,,SHORT,674
Exp1_SingleTask_TiTo_Subj17-24,1,22,sx,BlockProc4,350,m,0,m,1,,LONG,302
Exp1_SingleTask_TiTo_Subj17-24,1,22,sx,BlockProc4,300,m,0,m,1,,LONG,571
Exp1_SingleTask_TiTo_Subj17-24,1,22,sx,BlockProc4,300,z,0,z,1,,LONG,571
Exp1_SingleTask_TiTo_Subj17-24,1,22,sx,BlockProc4,300,z,100,z,1,,LONG,675
Exp1_SingleTask_TiTo_Subj17-24,1,22,sx,BlockProc4,100,m,100,m,1,,SHORT,722
Exp1_SingleTask_TiTo_Subj17-24,1,22,sx,BlockProc4,350,z,100,z,1,,LONG,633
Exp1_SingleTask_TiTo_Subj17-24,1,22,sx,BlockProc4,100,m,0,m,1,,SHORT,621
Exp1_SingleTask_TiTo_Subj17-24,1,22,sx,BlockProc4,350,m,100,m,1,,LONG,571
Exp1_SingleTask_TiTo_Subj17-24,1,22,sx,BlockProc4,300,z,100,z,1,,LONG,614
Exp1_SingleTask_TiTo_Subj17-24,1,22,sx,BlockProc4,150,m,100,m,1,,SHORT,739
Exp1_SingleTask_TiTo_Subj17-24,1,22,sx,BlockProc4,350,z,100,z,1,,LONG,596
Exp1_SingleTask_TiTo_Subj17-24,1,22,sx,BlockProc4,100,z,100,z,1,,SHORT,729
Exp1_SingleTask_TiTo_Subj17-24,1,22,sx,BlockProc4,150,z,100,z,1,,SHORT,675
Exp1_SingleTask_TiTo_Subj17-24,1,22,sx,BlockProc4,150,z,0,z,1,,SHORT,649
Exp1_SingleTask_TiTo_Subj17-24,1,22,sx,BlockProc4,350,z,0,z,1,,LONG,548
Exp1_SingleTask_TiTo_Subj17-24,1,22,sx,BlockProc4,100,z,100,z,1,,SHORT,683
Exp1_SingleTask_TiTo_Subj17-24,1,22,sx,BlockProc4,300,z,0,z,1,,LONG,585
Exp1_SingleTask_TiTo_Subj17-24,1,22,sx,BlockProc4,100,z,0,z,1,,SHORT,657
Exp1_SingleTask_TiTo_Subj17-24,1,22,sx,BlockProc4,100,m,100,m,1,,SHORT,314
Exp1_SingleTask_TiTo_Subj17-24,1,22,sx,BlockProc4,100,m,100,m,1,,SHORT,809
Exp1_SingleTask_TiTo_Subj17-24,1,22,sx,BlockProc4,300,m,100,m,1,,LONG,611
Exp1_SingleTask_TiTo_Subj17-24,1,22,sx,BlockProc4,300,m,100,m,1,,LONG,674
Exp1_SingleTask_TiTo_Subj17-24,1,22,sx,BlockProc4,300,m,0,m,1,,LONG,589
Exp1_SingleTask_TiTo_Subj17-24,1,22,sx,BlockProc4,150,z,100,z,1,,SHORT,669
Exp1_SingleTask_TiTo_Subj17-24,1,22,sx,BlockProc4,350,z,0,z,1,,LONG,566
Exp1_SingleTask_TiTo_Subj17-24,1,22,sx,BlockProc4,150,m,100,m,1,,SHORT,741
Exp1_SingleTask_TiTo_Subj17-24,1,22,sx,BlockProc4,150,z,0,z,1,,SHORT,599
Exp1_SingleTask_TiTo_Subj17-24,1,22,sx,BlockProc4,300,m,100,m,1,,LONG,387
Exp1_SingleTask_TiTo_Subj17-24,1,22,sx,BlockProc4,300,z,0,z,1,,LONG,578
Exp1_SingleTask_TiTo_Subj17-24,1,22,sx,BlockProc4,150,z,0,z,1,,SHORT,476
Exp1_SingleTask_TiTo_Subj17-24,1,22,sx,BlockProc4,100,z,100,z,1,,SHORT,741
Exp1_SingleTask_TiTo_Subj17-24,1,22,sx,BlockProc4,350,z,0,z,1,,LONG,979
Exp1_SingleTask_TiTo_Subj17-24,1,22,sx,BlockProc4,100,z,0,z,1,,SHORT,663
Exp1_SingleTask_TiTo_Subj17-24,1,22,sx,BlockProc4,100,m,100,m,1,,SHORT,694
Exp1_SingleTask_TiTo_Subj17-24,1,22,sx,BlockProc4,300,m,100,m,1,,LONG,608
Exp1_SingleTask_TiTo_Subj17-24,1,22,sx,BlockProc4,350,m,0,m,1,,LONG,552
Exp1_SingleTask_TiTo_Subj17-24,1,22,sx,BlockProc4,150,m,0,m,1,,SHORT,652
Exp1_SingleTask_TiTo_Subj17-24,1,22,sx,BlockProc4,100,z,100,z,1,,SHORT,1008
Exp1_SingleTask_TiTo_Subj17-24,1,22,sx,BlockProc4,350,m,0,m,1,,LONG,613
Exp1_SingleTask_TiTo_Subj17-24,1,22,sx,BlockProc4,100,z,100,z,1,,SHORT,720
Exp1_SingleTask_TiTo_Subj17-24,1,22,sx,BlockProc4,150,z,0,z,1,,SHORT,623
Exp1_SingleTask_TiTo_Subj17-24,1,22,sx,BlockProc4,300,m,0,m,1,,LONG,570
Exp1_SingleTask_TiTo_Subj17-24,1,22,sx,BlockProc4,300,z,0,z,1,,LONG,674
Exp1_SingleTask_TiTo_Subj17-24,1,22,sx,BlockProc4,150,z,100,z,1,,SHORT,673
Exp1_SingleTask_TiTo_Subj17-24,1,22,sx,BlockProc4,350,m,0,m,1,,LONG,503
Exp1_SingleTask_TiTo_Subj17-24,1,22,sx,BlockProc4,350,z,100,z,1,,LONG,812
Exp1_SingleTask_TiTo_Subj17-24,1,22,sx,BlockProc4,150,m,0,m,1,,SHORT,249
Exp1_SingleTask_TiTo_Subj17-24,1,22,sx,BlockProc4,150,z,100,z,1,,SHORT,1002
Exp1_SingleTask_TiTo_Subj17-24,1,22,sx,BlockProc4,300,m,100,m,1,,LONG,668
Exp1_SingleTask_TiTo_Subj17-24,1,22,sx,BlockProc4,150,m,0,m,1,,SHORT,710
Exp1_SingleTask_TiTo_Subj17-24,1,22,sx,BlockProc4,350,z,100,z,1,,LONG,655
Exp1_SingleTask_TiTo_Subj17-24,1,22,sx,BlockProc4,150,m,100,m,1,,SHORT,1016
Exp1_SingleTask_TiTo_Subj17-24,1,22,sx,BlockProc4,300,z,100,z,1,,LONG,704
Exp1_SingleTask_TiTo_Subj17-24,1,22,sx,BlockProc4,150,z,0,z,1,,SHORT,599
Exp1_SingleTask_TiTo_Subj17-24,1,22,sx,BlockProc4,300,m,0,m,1,,LONG,869
Exp1_SingleTask_TiTo_Subj17-24,1,22,sx,BlockProc4,300,z,100,z,1,,LONG,838
Exp1_SingleTask_TiTo_Subj17-24,1,22,sx,BlockProc4,100,z,0,z,1,,SHORT,663
Exp1_SingleTask_TiTo_Subj17-24,1,22,sx,BlockProc4,300,m,100,m,1,,LONG,636
Exp1_SingleTask_TiTo_Subj17-24,1,22,sx,BlockProc4,350,z,100,z,1,,LONG,628
Exp1_SingleTask_TiTo_Subj17-24,1,22,sx,BlockProc4,100,m,0,m,1,,SHORT,680
Exp1_SingleTask_TiTo_Subj17-24,1,22,sx,BlockProc4,100,m,0,m,1,,SHORT,669
Exp1_SingleTask_TiTo_Subj17-24,1,22,sx,BlockProc4,350,z,0,z,1,,LONG,554
Exp1_SingleTask_TiTo_Subj17-24,1,22,sx,BlockProc4,150,m,100,m,1,,SHORT,694
Exp1_SingleTask_TiTo_Subj17-24,1,22,sx,BlockProc4,100,m,100,m,1,,SHORT,646
Exp1_SingleTask_TiTo_Subj17-24,1,22,sx,BlockProc4,350,m,100,m,1,,LONG,575
Exp1_SingleTask_TiTo_Subj17-24,1,22,sx,BlockProc4,300,z,100,z,1,,LONG,599
Exp1_SingleTask_TiTo_Subj17-24,1,22,sx,BlockProc4,150,m,100,m,1,,SHORT,696
Exp1_SingleTask_TiTo_Subj17-24,1,22,sx,BlockProc4,350,m,100,m,1,,LONG,562
Exp1_SingleTask_TiTo_Subj17-24,1,22,sx,BlockProc4,300,m,0,m,1,,LONG,574
Exp1_SingleTask_TiTo_Subj17-24,1,22,sx,BlockProc4,300,z,0,z,1,,LONG,507
Exp1_SingleTask_TiTo_Subj17-24,1,22,sx,BlockProc4,350,z,0,z,1,,LONG,606
Exp1_SingleTask_TiTo_Subj17-24,1,22,sx,BlockProc4,100,m,0,m,1,,SHORT,717
Exp1_SingleTask_TiTo_Subj17-24,1,22,sx,BlockProc4,100,z,0,z,1,,SHORT,637
Exp1_SingleTask_TiTo_Subj17-24,1,22,sx,BlockProc4,350,m,100,m,1,,LONG,775
Exp1_SingleTask_TiTo_Subj17-24,1,22,sx,BlockProc4,150,z,100,z,1,,SHORT,514
Exp1_SingleTask_TiTo_Subj17-24,1,22,sx,BlockProc4,100,m,100,m,1,,SHORT,758
Exp1_SingleTask_TiTo_Subj17-24,1,22,sx,BlockProc4,150,m,100,m,1,,SHORT,673
Exp1_SingleTask_TiTo_Subj17-24,1,22,sx,BlockProc4,100,m,100,m,1,,SHORT,661
Exp1_SingleTask_TiTo_Subj17-24,1,22,sx,BlockProc4,350,z,0,z,1,,LONG,536
Exp1_SingleTask_TiTo_Subj17-24,1,22,sx,BlockProc4,350,z,0,z,1,,LONG,584
Exp1_SingleTask_TiTo_Subj17-24,1,22,sx,BlockProc4,300,m,0,m,1,,LONG,583
Exp1_SingleTask_TiTo_Subj17-24,1,22,sx,BlockProc4,350,z,0,z,1,,LONG,618
Exp1_SingleTask_TiTo_Subj17-24,1,22,sx,BlockProc4,100,m,0,m,1,,SHORT,700
Exp1_SingleTask_TiTo_Subj17-24,1,22,sx,BlockProc4,150,z,0,z,1,,SHORT,542
Exp1_SingleTask_TiTo_Subj17-24,1,22,sx,BlockProc4,150,z,0,z,1,,SHORT,689
Exp1_SingleTask_TiTo_Subj17-24,1,22,sx,BlockProc4,100,z,0,z,1,,SHORT,625
Exp1_SingleTask_TiTo_Subj17-24,1,22,sx,BlockProc4,100,z,0,z,1,,SHORT,454
Exp1_SingleTask_TiTo_Subj17-24,1,22,sx,BlockProc4,350,m,100,z,0,,LONG,776
Exp1_SingleTask_TiTo_Subj17-24,1,22,sx,BlockProc4,350,m,100,m,1,,LONG,598
Exp1_SingleTask_TiTo_Subj17-24,1,22,sx,BlockProc4,300,m,100,m,1,,LONG,627
Exp1_SingleTask_TiTo_Subj17-24,1,22,sx,BlockProc4,300,m,0,m,1,,LONG,633
Exp1_SingleTask_TiTo_Subj17-24,1,22,sx,BlockProc4,100,m,100,m,1,,SHORT,763
Exp1_SingleTask_TiTo_Subj17-24,1,22,sx,BlockProc4,150,z,100,z,1,,SHORT,677
Exp1_SingleTask_TiTo_Subj17-24,1,22,sx,BlockProc4,150,m,100,m,1,,SHORT,732
Exp1_SingleTask_TiTo_Subj17-24,1,22,sx,BlockProc4,150,z,0,z,1,,SHORT,659
Exp1_SingleTask_TiTo_Subj17-24,1,22,sx,BlockProc4,350,m,0,m,1,,LONG,590
Exp1_SingleTask_TiTo_Subj17-24,1,22,sx,BlockProc4,100,z,100,z,1,,SHORT,892
Exp1_SingleTask_TiTo_Subj17-24,1,22,sx,BlockProc4,300,z,100,z,1,,LONG,759
Exp1_SingleTask_TiTo_Subj17-24,1,22,sx,BlockProc4,300,m,100,m,1,,LONG,627
Exp1_SingleTask_TiTo_Subj17-24,1,22,sx,BlockProc4,100,m,0,m,1,,SHORT,661
Exp1_SingleTask_TiTo_Subj17-24,1,22,sx,BlockProc4,300,m,100,m,1,,LONG,548
Exp1_SingleTask_TiTo_Subj17-24,1,22,sx,BlockProc4,100,z,100,z,1,,SHORT,608
Exp1_SingleTask_TiTo_Subj17-24,1,22,sx,BlockProc4,350,m,0,m,1,,LONG,994
Exp1_SingleTask_TiTo_Subj17-24,1,22,sx,BlockProc4,350,z,100,z,1,,LONG,596
Exp1_SingleTask_TiTo_Subj17-24,1,22,sx,BlockProc4,300,z,0,z,1,,LONG,1055
Exp1_SingleTask_TiTo_Subj17-24,1,22,sx,BlockProc4,100,z,100,z,1,,SHORT,727
Exp1_SingleTask_TiTo_Subj17-24,1,22,sx,BlockProc4,350,z,100,z,1,,LONG,338
Exp1_SingleTask_TiTo_Subj17-24,1,22,sx,BlockProc4,100,m,100,m,1,,SHORT,633
Exp1_SingleTask_TiTo_Subj17-24,1,22,sx,BlockProc4,150,m,100,m,1,,SHORT,589
Exp1_SingleTask_TiTo_Subj17-24,1,22,sx,BlockProc4,300,z,0,z,1,,LONG,547
Exp1_SingleTask_TiTo_Subj17-24,1,22,sx,BlockProc4,100,m,0,m,1,,SHORT,638
Exp1_SingleTask_TiTo_Subj17-24,1,22,sx,BlockProc4,350,m,100,m,1,,LONG,549
Exp1_SingleTask_TiTo_Subj17-24,1,22,sx,BlockProc4,150,m,0,m,1,,SHORT,664
Exp1_SingleTask_TiTo_Subj17-24,1,22,sx,BlockProc4,100,z,0,z,1,,SHORT,649
Exp1_SingleTask_TiTo_Subj17-24,1,22,sx,BlockProc4,150,m,0,m,1,,SHORT,628
Exp1_SingleTask_TiTo_Subj17-24,1,22,sx,BlockProc4,300,z,0,z,1,,LONG,566
Exp1_SingleTask_TiTo_Subj17-24,1,22,sx,BlockProc4,300,z,100,z,1,,LONG,652
Exp1_SingleTask_TiTo_Subj17-24,1,22,sx,BlockProc4,300,m,0,m,1,,LONG,588
Exp1_SingleTask_TiTo_Subj17-24,1,22,sx,BlockProc4,300,z,100,z,1,,LONG,721
Exp1_SingleTask_TiTo_Subj17-24,1,22,sx,BlockProc4,350,z,100,z,1,,LONG,632
Exp1_SingleTask_TiTo_Subj17-24,1,22,sx,BlockProc4,150,z,100,z,1,,SHORT,589
Exp1_SingleTask_TiTo_Subj17-24,1,22,sx,BlockProc4,150,m,0,m,1,,SHORT,750
Exp1_SingleTask_TiTo_Subj17-24,1,22,sx,BlockProc4,350,m,0,m,1,,LONG,558
Exp1_SingleTask_TiTo_Subj17-24,1,22,sx,BlockProc4,150,z,100,z,1,,SHORT,610
Exp1_SingleTask_TiTo_Subj17-24,2,23,dx,BlockProc1,100,z,100,z,1,575,SHORT,704
Exp1_SingleTask_TiTo_Subj17-24,2,23,dx,BlockProc1,350,z,0,z,1,,LONG,551
Exp1_SingleTask_TiTo_Subj17-24,2,23,dx,BlockProc1,150,m,100,m,1,,SHORT,566
Exp1_SingleTask_TiTo_Subj17-24,2,23,dx,BlockProc1,300,z,100,z,1,,LONG,610
Exp1_SingleTask_TiTo_Subj17-24,2,23,dx,BlockProc1,100,z,100,z,1,,SHORT,640
Exp1_SingleTask_TiTo_Subj17-24,2,23,dx,BlockProc1,350,m,0,m,1,,LONG,435
Exp1_SingleTask_TiTo_Subj17-24,2,23,dx,BlockProc1,350,z,0,z,1,,LONG,514
Exp1_SingleTask_TiTo_Subj17-24,2,23,dx,BlockProc1,150,z,0,z,1,,SHORT,552
Exp1_SingleTask_TiTo_Subj17-24,2,23,dx,BlockProc1,100,z,100,z,1,,SHORT,623
Exp1_SingleTask_TiTo_Subj17-24,2,23,dx,BlockProc1,100,m,0,m,1,,SHORT,530
Exp1_SingleTask_TiTo_Subj17-24,2,23,dx,BlockProc1,100,z,0,z,1,,SHORT,551
Exp1_SingleTask_TiTo_Subj17-24,2,23,dx,BlockProc1,350,z,0,z,1,,LONG,490
Exp1_SingleTask_TiTo_Subj17-24,2,23,dx,BlockProc1,300,m,0,m,1,,LONG,448
Exp1_SingleTask_TiTo_Subj17-24,2,23,dx,BlockProc1,100,z,0,z,1,,SHORT,583
Exp1_SingleTask_TiTo_Subj17-24,2,23,dx,BlockProc1,150,m,100,m,1,,SHORT,664
Exp1_SingleTask_TiTo_Subj17-24,2,23,dx,BlockProc1,100,m,100,m,1,,SHORT,624
Exp1_SingleTask_TiTo_Subj17-24,2,23,dx,BlockProc1,300,m,100,m,1,,LONG,585
Exp1_SingleTask_TiTo_Subj17-24,2,23,dx,BlockProc1,350,m,0,m,1,,LONG,510
Exp1_SingleTask_TiTo_Subj17-24,2,23,dx,BlockProc1,100,m,100,m,1,,SHORT,617
Exp1_SingleTask_TiTo_Subj17-24,2,23,dx,BlockProc1,300,z,0,z,1,,LONG,498
Exp1_SingleTask_TiTo_Subj17-24,2,23,dx,BlockProc1,100,z,0,z,1,,SHORT,603
Exp1_SingleTask_TiTo_Subj17-24,2,23,dx,BlockProc1,150,z,100,z,1,,SHORT,764
Exp1_SingleTask_TiTo_Subj17-24,2,23,dx,BlockProc1,100,m,100,m,1,,SHORT,606
Exp1_SingleTask_TiTo_Subj17-24,2,23,dx,BlockProc1,350,m,0,m,1,,LONG,792
Exp1_SingleTask_TiTo_Subj17-24,2,23,dx,BlockProc1,300,z,0,z,1,,LONG,456
Exp1_SingleTask_TiTo_Subj17-24,2,23,dx,BlockProc1,150,z,100,z,1,,SHORT,617
Exp1_SingleTask_TiTo_Subj17-24,2,23,dx,BlockProc1,300,m,0,m,1,,LONG,363
Exp1_SingleTask_TiTo_Subj17-24,2,23,dx,BlockProc1,150,z,0,z,1,,SHORT,428
Exp1_SingleTask_TiTo_Subj17-24,2,23,dx,BlockProc1,300,m,0,m,1,,LONG,408
Exp1_SingleTask_TiTo_Subj17-24,2,23,dx,BlockProc1,150,m,0,m,1,,SHORT,644
Exp1_SingleTask_TiTo_Subj17-24,2,23,dx,BlockProc1,350,z,100,z,1,,LONG,540
Exp1_SingleTask_TiTo_Subj17-24,2,23,dx,BlockProc1,150,z,0,z,1,,SHORT,678
Exp1_SingleTask_TiTo_Subj17-24,2,23,dx,BlockProc1,100,m,0,m,1,,SHORT,527
Exp1_SingleTask_TiTo_Subj17-24,2,23,dx,BlockProc1,300,z,100,z,1,,LONG,543
Exp1_SingleTask_TiTo_Subj17-24,2,23,dx,BlockProc1,150,m,0,m,1,,SHORT,446
Exp1_SingleTask_TiTo_Subj17-24,2,23,dx,BlockProc1,100,m,0,m,1,,SHORT,595
Exp1_SingleTask_TiTo_Subj17-24,2,23,dx,BlockProc1,300,m,100,m,1,,LONG,413
Exp1_SingleTask_TiTo_Subj17-24,2,23,dx,BlockProc1,300,z,0,z,1,,LONG,455
Exp1_SingleTask_TiTo_Subj17-24,2,23,dx,BlockProc1,350,m,100,m,1,,LONG,479
Exp1_SingleTask_TiTo_Subj17-24,2,23,dx,BlockProc1,350,m,100,m,1,,LONG,700
Exp1_SingleTask_TiTo_Subj17-24,2,23,dx,BlockProc1,150,z,100,z,1,,SHORT,615
Exp1_SingleTask_TiTo_Subj17-24,2,23,dx,BlockProc1,150,m,0,m,1,,SHORT,654
Exp1_SingleTask_TiTo_Subj17-24,2,23,dx,BlockProc1,150,m,100,m,1,,SHORT,571
Exp1_SingleTask_TiTo_Subj17-24,2,23,dx,BlockProc1,350,m,100,m,1,,LONG,477
Exp1_SingleTask_TiTo_Subj17-24,2,23,dx,BlockProc1,350,z,100,z,1,,LONG,563
Exp1_SingleTask_TiTo_Subj17-24,2,23,dx,BlockProc1,350,z,100,z,1,,LONG,525
Exp1_SingleTask_TiTo_Subj17-24,2,23,dx,BlockProc1,300,m,100,m,1,,LONG,405
Exp1_SingleTask_TiTo_Subj17-24,2,23,dx,BlockProc1,300,z,100,z,1,,LONG,535
Exp1_SingleTask_TiTo_Subj17-24,2,23,dx,BlockProc1,350,m,0,m,1,,LONG,708
Exp1_SingleTask_TiTo_Subj17-24,2,23,dx,BlockProc1,300,m,100,m,1,,LONG,529
Exp1_SingleTask_TiTo_Subj17-24,2,23,dx,BlockProc1,150,m,0,m,1,,SHORT,491
Exp1_SingleTask_TiTo_Subj17-24,2,23,dx,BlockProc1,150,m,0,m,1,,SHORT,505
Exp1_SingleTask_TiTo_Subj17-24,2,23,dx,BlockProc1,100,m,100,m,1,,SHORT,709
Exp1_SingleTask_TiTo_Subj17-24,2,23,dx,BlockProc1,300,z,100,z,1,,LONG,415
Exp1_SingleTask_TiTo_Subj17-24,2,23,dx,BlockProc1,100,m,100,m,1,,SHORT,517
Exp1_SingleTask_TiTo_Subj17-24,2,23,dx,BlockProc1,100,z,0,z,1,,SHORT,451
Exp1_SingleTask_TiTo_Subj17-24,2,23,dx,BlockProc1,350,m,0,m,1,,LONG,443
Exp1_SingleTask_TiTo_Subj17-24,2,23,dx,BlockProc1,350,z,100,z,1,,LONG,435
Exp1_SingleTask_TiTo_Subj17-24,2,23,dx,BlockProc1,100,z,100,z,1,,SHORT,644
Exp1_SingleTask_TiTo_Subj17-24,2,23,dx,BlockProc1,100,z,0,z,1,,SHORT,728
Exp1_SingleTask_TiTo_Subj17-24,2,23,dx,BlockProc1,100,m,0,m,1,,SHORT,446
Exp1_SingleTask_TiTo_Subj17-24,2,23,dx,BlockProc1,350,z,100,z,1,,LONG,480
Exp1_SingleTask_TiTo_Subj17-24,2,23,dx,BlockProc1,150,z,0,z,1,,SHORT,575
Exp1_SingleTask_TiTo_Subj17-24,2,23,dx,BlockProc1,100,m,0,m,1,,SHORT,562
Exp1_SingleTask_TiTo_Subj17-24,2,23,dx,BlockProc1,100,m,100,m,1,,SHORT,770
Exp1_SingleTask_TiTo_Subj17-24,2,23,dx,BlockProc1,150,z,100,z,1,,SHORT,552
Exp1_SingleTask_TiTo_Subj17-24,2,23,dx,BlockProc1,350,m,0,m,1,,LONG,414
Exp1_SingleTask_TiTo_Subj17-24,2,23,dx,BlockProc1,350,z,0,z,1,,LONG,441
Exp1_SingleTask_TiTo_Subj17-24,2,23,dx,BlockProc1,300,m,100,m,1,,LONG,431
Exp1_SingleTask_TiTo_Subj17-24,2,23,dx,BlockProc1,150,m,100,m,1,,SHORT,549
Exp1_SingleTask_TiTo_Subj17-24,2,23,dx,BlockProc1,300,z,100,z,1,,LONG,340
Exp1_SingleTask_TiTo_Subj17-24,2,23,dx,BlockProc1,100,z,0,z,1,,SHORT,488
Exp1_SingleTask_TiTo_Subj17-24,2,23,dx,BlockProc1,300,z,100,z,1,,LONG,486
Exp1_SingleTask_TiTo_Subj17-24,2,23,dx,BlockProc1,150,m,100,m,1,,SHORT,469
Exp1_SingleTask_TiTo_Subj17-24,2,23,dx,BlockProc1,300,z,0,z,1,,LONG,507
Exp1_SingleTask_TiTo_Subj17-24,2,23,dx,BlockProc1,100,z,100,z,1,,SHORT,575
Exp1_SingleTask_TiTo_Subj17-24,2,23,dx,BlockProc1,150,z,0,z,1,,SHORT,504
Exp1_SingleTask_TiTo_Subj17-24,2,23,dx,BlockProc1,150,z,0,z,1,,SHORT,518
Exp1_SingleTask_TiTo_Subj17-24,2,23,dx,BlockProc1,300,m,0,m,1,,LONG,367
Exp1_SingleTask_TiTo_Subj17-24,2,23,dx,BlockProc1,150,m,0,m,1,,SHORT,428
Exp1_SingleTask_TiTo_Subj17-24,2,23,dx,BlockProc1,350,z,100,z,1,,LONG,505
Exp1_SingleTask_TiTo_Subj17-24,2,23,dx,BlockProc1,300,m,0,m,1,,LONG,385
Exp1_SingleTask_TiTo_Subj17-24,2,23,dx,BlockProc1,150,z,100,z,1,,SHORT,510
Exp1_SingleTask_TiTo_Subj17-24,2,23,dx,BlockProc1,150,z,100,z,1,,SHORT,635
Exp1_SingleTask_TiTo_Subj17-24,2,23,dx,BlockProc1,300,m,0,m,1,,LONG,365
Exp1_SingleTask_TiTo_Subj17-24,2,23,dx,BlockProc1,350,z,0,z,1,,LONG,517
Exp1_SingleTask_TiTo_Subj17-24,2,23,dx,BlockProc1,100,z,100,z,1,,SHORT,625
Exp1_SingleTask_TiTo_Subj17-24,2,23,dx,BlockProc1,300,m,100,m,1,,LONG,451
Exp1_SingleTask_TiTo_Subj17-24,2,23,dx,BlockProc1,300,z,0,z,1,,LONG,458
Exp1_SingleTask_TiTo_Subj17-24,2,23,dx,BlockProc1,350,z,0,z,1,,LONG,469
Exp1_SingleTask_TiTo_Subj17-24,2,23,dx,BlockProc1,300,z,0,z,1,,LONG,468
Exp1_SingleTask_TiTo_Subj17-24,2,23,dx,BlockProc1,350,m,100,m,1,,LONG,552
Exp1_SingleTask_TiTo_Subj17-24,2,23,dx,BlockProc1,100,m,0,m,1,,SHORT,596
Exp1_SingleTask_TiTo_Subj17-24,2,23,dx,BlockProc1,150,m,100,m,1,,SHORT,548
Exp1_SingleTask_TiTo_Subj17-24,2,23,dx,BlockProc1,350,m,100,m,1,,LONG,475
Exp1_SingleTask_TiTo_Subj17-24,2,23,dx,BlockProc1,350,m,100,m,1,,LONG,477
Exp1_SingleTask_TiTo_Subj17-24,2,23,dx,BlockProc1,150,m,0,m,1,,SHORT,559
Exp1_SingleTask_TiTo_Subj17-24,2,23,dx,BlockProc1,350,m,100,m,1,,LONG,496
Exp1_SingleTask_TiTo_Subj17-24,2,23,dx,BlockProc1,150,z,0,z,1,,SHORT,574
Exp1_SingleTask_TiTo_Subj17-24,2,23,dx,BlockProc1,300,m,100,m,1,,LONG,472
Exp1_SingleTask_TiTo_Subj17-24,2,23,dx,BlockProc1,150,z,0,z,1,,SHORT,477
Exp1_SingleTask_TiTo_Subj17-24,2,23,dx,BlockProc1,350,z,0,z,1,,LONG,489
Exp1_SingleTask_TiTo_Subj17-24,2,23,dx,BlockProc1,300,z,0,z,1,,LONG,538
Exp1_SingleTask_TiTo_Subj17-24,2,23,dx,BlockProc1,350,m,0,m,1,,LONG,487
Exp1_SingleTask_TiTo_Subj17-24,2,23,dx,BlockProc1,350,z,0,z,1,,LONG,501
Exp1_SingleTask_TiTo_Subj17-24,2,23,dx,BlockProc1,300,m,100,m,1,,LONG,466
Exp1_SingleTask_TiTo_Subj17-24,2,23,dx,BlockProc1,350,z,100,z,1,,LONG,515
Exp1_SingleTask_TiTo_Subj17-24,2,23,dx,BlockProc1,100,m,0,m,1,,SHORT,489
Exp1_SingleTask_TiTo_Subj17-24,2,23,dx,BlockProc1,300,z,0,z,1,,LONG,503
Exp1_SingleTask_TiTo_Subj17-24,2,23,dx,BlockProc1,350,m,100,m,1,,LONG,425
Exp1_SingleTask_TiTo_Subj17-24,2,23,dx,BlockProc1,150,m,0,m,1,,SHORT,693
Exp1_SingleTask_TiTo_Subj17-24,2,23,dx,BlockProc1,150,z,100,z,1,,SHORT,990
Exp1_SingleTask_TiTo_Subj17-24,2,23,dx,BlockProc1,100,z,100,z,1,,SHORT,613
Exp1_SingleTask_TiTo_Subj17-24,2,23,dx,BlockProc1,300,z,100,z,1,,LONG,558
Exp1_SingleTask_TiTo_Subj17-24,2,23,dx,BlockProc1,100,m,100,m,1,,SHORT,553
Exp1_SingleTask_TiTo_Subj17-24,2,23,dx,BlockProc1,350,z,100,z,1,,LONG,548
Exp1_SingleTask_TiTo_Subj17-24,2,23,dx,BlockProc1,150,m,100,m,1,,SHORT,573
Exp1_SingleTask_TiTo_Subj17-24,2,23,dx,BlockProc1,150,z,0,z,1,,SHORT,566
Exp1_SingleTask_TiTo_Subj17-24,2,23,dx,BlockProc1,300,z,100,z,1,,LONG,471
Exp1_SingleTask_TiTo_Subj17-24,2,23,dx,BlockProc1,350,m,100,m,1,,LONG,514
Exp1_SingleTask_TiTo_Subj17-24,2,23,dx,BlockProc1,300,m,0,m,1,,LONG,488
Exp1_SingleTask_TiTo_Subj17-24,2,23,dx,BlockProc1,100,m,100,m,1,,SHORT,586
Exp1_SingleTask_TiTo_Subj17-24,2,23,dx,BlockProc1,150,m,100,m,1,,SHORT,608
Exp1_SingleTask_TiTo_Subj17-24,2,23,dx,BlockProc1,100,z,100,z,1,,SHORT,490
Exp1_SingleTask_TiTo_Subj17-24,2,23,dx,BlockProc1,300,m,0,m,1,,LONG,465
Exp1_SingleTask_TiTo_Subj17-24,2,23,dx,BlockProc1,150,z,100,z,1,,SHORT,520
Exp1_SingleTask_TiTo_Subj17-24,2,23,dx,BlockProc1,150,m,100,m,1,,SHORT,465
Exp1_SingleTask_TiTo_Subj17-24,2,23,dx,BlockProc1,350,z,0,z,1,,LONG,497
Exp1_SingleTask_TiTo_Subj17-24,2,23,dx,BlockProc1,300,m,0,m,1,,LONG,364
Exp1_SingleTask_TiTo_Subj17-24,2,23,dx,BlockProc1,100,m,100,m,1,,SHORT,549
Exp1_SingleTask_TiTo_Subj17-24,2,23,dx,BlockProc1,350,z,100,z,1,,LONG,541
Exp1_SingleTask_TiTo_Subj17-24,2,23,dx,BlockProc1,300,z,100,z,1,,LONG,565
Exp1_SingleTask_TiTo_Subj17-24,2,23,dx,BlockProc1,100,z,0,z,1,,SHORT,710
Exp1_SingleTask_TiTo_Subj17-24,2,23,dx,BlockProc1,300,m,100,m,1,,LONG,521
Exp1_SingleTask_TiTo_Subj17-24,2,23,dx,BlockProc1,100,m,0,m,1,,SHORT,630
Exp1_SingleTask_TiTo_Subj17-24,2,23,dx,BlockProc1,350,m,0,m,1,,LONG,477
Exp1_SingleTask_TiTo_Subj17-24,2,23,dx,BlockProc1,150,z,100,z,1,,SHORT,615
Exp1_SingleTask_TiTo_Subj17-24,2,23,dx,BlockProc1,100,z,100,z,1,,SHORT,611
Exp1_SingleTask_TiTo_Subj17-24,2,23,dx,BlockProc1,100,z,0,z,1,,SHORT,514
Exp1_SingleTask_TiTo_Subj17-24,2,23,dx,BlockProc1,100,z,0,z,1,,SHORT,503
Exp1_SingleTask_TiTo_Subj17-24,2,23,dx,BlockProc1,100,m,0,m,1,,SHORT,399
Exp1_SingleTask_TiTo_Subj17-24,2,23,dx,BlockProc1,300,z,0,z,1,,LONG,447
Exp1_SingleTask_TiTo_Subj17-24,2,23,dx,BlockProc1,150,m,0,m,1,,SHORT,471
Exp1_SingleTask_TiTo_Subj17-24,2,23,dx,BlockProc1,350,m,0,m,1,,LONG,478
Exp1_SingleTask_TiTo_Subj17-24,2,23,dx,BlockProc2,100,z,100,z,1,,SHORT,635
Exp1_SingleTask_TiTo_Subj17-24,2,23,dx,BlockProc2,350,m,100,m,1,,LONG,421
Exp1_SingleTask_TiTo_Subj17-24,2,23,dx,BlockProc2,100,m,0,m,1,,SHORT,506
Exp1_SingleTask_TiTo_Subj17-24,2,23,dx,BlockProc2,150,m,0,m,1,,SHORT,491
Exp1_SingleTask_TiTo_Subj17-24,2,23,dx,BlockProc2,350,m,0,m,1,,LONG,371
Exp1_SingleTask_TiTo_Subj17-24,2,23,dx,BlockProc2,100,z,100,z,1,,SHORT,615
Exp1_SingleTask_TiTo_Subj17-24,2,23,dx,BlockProc2,300,m,100,m,1,,LONG,430
Exp1_SingleTask_TiTo_Subj17-24,2,23,dx,BlockProc2,300,z,0,z,1,,LONG,480
Exp1_SingleTask_TiTo_Subj17-24,2,23,dx,BlockProc2,350,z,0,z,1,,LONG,472
Exp1_SingleTask_TiTo_Subj17-24,2,23,dx,BlockProc2,150,z,100,z,1,,SHORT,591
Exp1_SingleTask_TiTo_Subj17-24,2,23,dx,BlockProc2,300,z,100,z,1,,LONG,440
Exp1_SingleTask_TiTo_Subj17-24,2,23,dx,BlockProc2,300,m,0,m,1,,LONG,359
Exp1_SingleTask_TiTo_Subj17-24,2,23,dx,BlockProc2,150,m,100,m,1,,SHORT,497
Exp1_SingleTask_TiTo_Subj17-24,2,23,dx,BlockProc2,100,z,0,z,1,,SHORT,403
Exp1_SingleTask_TiTo_Subj17-24,2,23,dx,BlockProc2,100,m,100,m,1,,SHORT,504
Exp1_SingleTask_TiTo_Subj17-24,2,23,dx,BlockProc2,150,m,100,m,1,,SHORT,481
Exp1_SingleTask_TiTo_Subj17-24,2,23,dx,BlockProc2,350,m,100,m,1,,LONG,437
Exp1_SingleTask_TiTo_Subj17-24,2,23,dx,BlockProc2,350,z,100,z,1,,LONG,449
Exp1_SingleTask_TiTo_Subj17-24,2,23,dx,BlockProc2,100,m,0,m,1,,SHORT,590
Exp1_SingleTask_TiTo_Subj17-24,2,23,dx,BlockProc2,350,z,100,z,1,,LONG,457
Exp1_SingleTask_TiTo_Subj17-24,2,23,dx,BlockProc2,300,z,0,z,1,,LONG,368
Exp1_SingleTask_TiTo_Subj17-24,2,23,dx,BlockProc2,300,z,0,z,1,,LONG,422
Exp1_SingleTask_TiTo_Subj17-24,2,23,dx,BlockProc2,300,m,100,m,1,,LONG,486
Exp1_SingleTask_TiTo_Subj17-24,2,23,dx,BlockProc2,150,z,100,z,1,,SHORT,517
Exp1_SingleTask_TiTo_Subj17-24,2,23,dx,BlockProc2,100,z,0,z,1,,SHORT,672
Exp1_SingleTask_TiTo_Subj17-24,2,23,dx,BlockProc2,300,z,100,z,1,,LONG,438
Exp1_SingleTask_TiTo_Subj17-24,2,23,dx,BlockProc2,150,z,0,z,1,,SHORT,503
Exp1_SingleTask_TiTo_Subj17-24,2,23,dx,BlockProc2,300,m,0,m,1,,LONG,365
Exp1_SingleTask_TiTo_Subj17-24,2,23,dx,BlockProc2,150,m,0,m,1,,SHORT,576
Exp1_SingleTask_TiTo_Subj17-24,2,23,dx,BlockProc2,300,m,0,m,1,,LONG,426
Exp1_SingleTask_TiTo_Subj17-24,2,23,dx,BlockProc2,150,m,0,m,1,,SHORT,473
Exp1_SingleTask_TiTo_Subj17-24,2,23,dx,BlockProc2,150,z,100,z,1,,SHORT,521
Exp1_SingleTask_TiTo_Subj17-24,2,23,dx,BlockProc2,100,m,100,m,1,,SHORT,625
Exp1_SingleTask_TiTo_Subj17-24,2,23,dx,BlockProc2,100,m,100,m,1,,SHORT,692
Exp1_SingleTask_TiTo_Subj17-24,2,23,dx,BlockProc2,350,z,0,z,1,,LONG,346
Exp1_SingleTask_TiTo_Subj17-24,2,23,dx,BlockProc2,150,m,100,m,1,,SHORT,449
Exp1_SingleTask_TiTo_Subj17-24,2,23,dx,BlockProc2,350,m,100,m,1,,LONG,389
Exp1_SingleTask_TiTo_Subj17-24,2,23,dx,BlockProc2,150,z,0,z,1,,SHORT,454
Exp1_SingleTask_TiTo_Subj17-24,2,23,dx,BlockProc2,150,z,0,z,1,,SHORT,477
Exp1_SingleTask_TiTo_Subj17-24,2,23,dx,BlockProc2,350,m,0,m,1,,LONG,463
Exp1_SingleTask_TiTo_Subj17-24,2,23,dx,BlockProc2,350,z,0,z,1,,LONG,476
Exp1_SingleTask_TiTo_Subj17-24,2,23,dx,BlockProc2,300,m,100,m,1,,LONG,413
Exp1_SingleTask_TiTo_Subj17-24,2,23,dx,BlockProc2,100,m,0,m,1,,SHORT,535
Exp1_SingleTask_TiTo_Subj17-24,2,23,dx,BlockProc2,350,m,0,m,1,,LONG,437
Exp1_SingleTask_TiTo_Subj17-24,2,23,dx,BlockProc2,350,z,100,z,1,,LONG,509
Exp1_SingleTask_TiTo_Subj17-24,2,23,dx,BlockProc2,300,z,100,z,1,,LONG,309
Exp1_SingleTask_TiTo_Subj17-24,2,23,dx,BlockProc2,100,z,0,z,1,,SHORT,485
Exp1_SingleTask_TiTo_Subj17-24,2,23,dx,BlockProc2,100,z,100,z,1,,SHORT,548
Exp1_SingleTask_TiTo_Subj17-24,2,23,dx,BlockProc2,300,z,100,z,1,,LONG,544
Exp1_SingleTask_TiTo_Subj17-24,2,23,dx,BlockProc2,300,m,0,m,1,,LONG,265
Exp1_SingleTask_TiTo_Subj17-24,2,23,dx,BlockProc2,300,z,0,z,1,,LONG,478
Exp1_SingleTask_TiTo_Subj17-24,2,23,dx,BlockProc2,350,z,100,z,1,,LONG,343
Exp1_SingleTask_TiTo_Subj17-24,2,23,dx,BlockProc2,100,z,0,z,1,,SHORT,474
Exp1_SingleTask_TiTo_Subj17-24,2,23,dx,BlockProc2,100,z,100,z,1,,SHORT,655
Exp1_SingleTask_TiTo_Subj17-24,2,23,dx,BlockProc2,300,z,100,z,1,,LONG,445
Exp1_SingleTask_TiTo_Subj17-24,2,23,dx,BlockProc2,300,z,0,z,1,,LONG,390
Exp1_SingleTask_TiTo_Subj17-24,2,23,dx,BlockProc2,100,z,0,z,1,,SHORT,481
Exp1_SingleTask_TiTo_Subj17-24,2,23,dx,BlockProc2,350,m,0,m,1,,LONG,454
Exp1_SingleTask_TiTo_Subj17-24,2,23,dx,BlockProc2,350,z,0,z,1,,LONG,442
Exp1_SingleTask_TiTo_Subj17-24,2,23,dx,BlockProc2,150,m,100,m,1,,SHORT,603
Exp1_SingleTask_TiTo_Subj17-24,2,23,dx,BlockProc2,350,m,0,m,1,,LONG,412
Exp1_SingleTask_TiTo_Subj17-24,2,23,dx,BlockProc2,350,z,100,z,1,,LONG,545
Exp1_SingleTask_TiTo_Subj17-24,2,23,dx,BlockProc2,100,z,0,z,1,,SHORT,551
Exp1_SingleTask_TiTo_Subj17-24,2,23,dx,BlockProc2,100,z,100,z,1,,SHORT,547
Exp1_SingleTask_TiTo_Subj17-24,2,23,dx,BlockProc2,300,m,0,m,1,,LONG,378
Exp1_SingleTask_TiTo_Subj17-24,2,23,dx,BlockProc2,100,m,0,m,1,,SHORT,478
Exp1_SingleTask_TiTo_Subj17-24,2,23,dx,BlockProc2,350,z,0,z,1,,LONG,471
Exp1_SingleTask_TiTo_Subj17-24,2,23,dx,BlockProc2,150,m,100,m,1,,SHORT,524
Exp1_SingleTask_TiTo_Subj17-24,2,23,dx,BlockProc2,150,z,0,z,1,,SHORT,490
Exp1_SingleTask_TiTo_Subj17-24,2,23,dx,BlockProc2,350,z,100,z,1,,LONG,471
Exp1_SingleTask_TiTo_Subj17-24,2,23,dx,BlockProc2,300,m,0,m,1,,LONG,462
Exp1_SingleTask_TiTo_Subj17-24,2,23,dx,BlockProc2,150,m,0,m,1,,SHORT,603
Exp1_SingleTask_TiTo_Subj17-24,2,23,dx,BlockProc2,100,m,100,m,1,,SHORT,596
Exp1_SingleTask_TiTo_Subj17-24,2,23,dx,BlockProc2,150,z,0,z,1,,SHORT,519
Exp1_SingleTask_TiTo_Subj17-24,2,23,dx,BlockProc2,300,m,100,m,1,,LONG,420
Exp1_SingleTask_TiTo_Subj17-24,2,23,dx,BlockProc2,300,m,100,m,1,,LONG,388
Exp1_SingleTask_TiTo_Subj17-24,2,23,dx,BlockProc2,150,z,100,z,1,,SHORT,553
Exp1_SingleTask_TiTo_Subj17-24,2,23,dx,BlockProc2,150,z,0,z,1,,SHORT,396
Exp1_SingleTask_TiTo_Subj17-24,2,23,dx,BlockProc2,150,m,0,m,1,,SHORT,442
Exp1_SingleTask_TiTo_Subj17-24,2,23,dx,BlockProc2,350,m,0,m,1,,LONG,480
Exp1_SingleTask_TiTo_Subj17-24,2,23,dx,BlockProc2,100,m,0,m,1,,SHORT,487
Exp1_SingleTask_TiTo_Subj17-24,2,23,dx,BlockProc2,350,z,0,z,1,,LONG,436
Exp1_SingleTask_TiTo_Subj17-24,2,23,dx,BlockProc2,150,z,100,z,1,,SHORT,582
Exp1_SingleTask_TiTo_Subj17-24,2,23,dx,BlockProc2,150,z,100,z,1,,SHORT,594
Exp1_SingleTask_TiTo_Subj17-24,2,23,dx,BlockProc2,100,z,100,z,1,,SHORT,681
Exp1_SingleTask_TiTo_Subj17-24,2,23,dx,BlockProc2,150,m,100,m,1,,SHORT,492
Exp1_SingleTask_TiTo_Subj17-24,2,23,dx,BlockProc2,100,m,100,m,1,,SHORT,604
Exp1_SingleTask_TiTo_Subj17-24,2,23,dx,BlockProc2,150,m,0,m,1,,SHORT,435
Exp1_SingleTask_TiTo_Subj17-24,2,23,dx,BlockProc2,100,m,100,m,1,,SHORT,529
Exp1_SingleTask_TiTo_Subj17-24,2,23,dx,BlockProc2,350,m,100,m,1,,LONG,394
Exp1_SingleTask_TiTo_Subj17-24,2,23,dx,BlockProc2,350,m,100,m,1,,LONG,460
Exp1_SingleTask_TiTo_Subj17-24,2,23,dx,BlockProc2,350,m,100,m,1,,LONG,392
Exp1_SingleTask_TiTo_Subj17-24,2,23,dx,BlockProc2,100,m,0,m,1,,SHORT,535
Exp1_SingleTask_TiTo_Subj17-24,2,23,dx,BlockProc2,300,z,0,z,1,,LONG,569
Exp1_SingleTask_TiTo_Subj17-24,2,23,dx,BlockProc2,300,m,100,m,1,,LONG,503
Exp1_SingleTask_TiTo_Subj17-24,2,23,dx,BlockProc2,300,z,100,z,1,,LONG,429
Exp1_SingleTask_TiTo_Subj17-24,2,23,dx,BlockProc2,100,m,100,m,1,,SHORT,580
Exp1_SingleTask_TiTo_Subj17-24,2,23,dx,BlockProc2,150,m,100,m,1,,SHORT,566
Exp1_SingleTask_TiTo_Subj17-24,2,23,dx,BlockProc2,150,z,0,z,1,,SHORT,493
Exp1_SingleTask_TiTo_Subj17-24,2,23,dx,BlockProc2,300,m,100,m,1,,LONG,440
Exp1_SingleTask_TiTo_Subj17-24,2,23,dx,BlockProc2,350,z,100,z,1,,LONG,602
Exp1_SingleTask_TiTo_Subj17-24,2,23,dx,BlockProc2,100,z,100,z,1,,SHORT,590
Exp1_SingleTask_TiTo_Subj17-24,2,23,dx,BlockProc2,350,z,0,z,1,,LONG,422
Exp1_SingleTask_TiTo_Subj17-24,2,23,dx,BlockProc2,150,z,100,z,1,,SHORT,574
Exp1_SingleTask_TiTo_Subj17-24,2,23,dx,BlockProc2,350,z,100,z,1,,LONG,420
Exp1_SingleTask_TiTo_Subj17-24,2,23,dx,BlockProc2,300,z,100,z,1,,LONG,359
Exp1_SingleTask_TiTo_Subj17-24,2,23,dx,BlockProc2,350,m,0,m,1,,LONG,429
Exp1_SingleTask_TiTo_Subj17-24,2,23,dx,BlockProc2,100,m,0,m,1,,SHORT,462
Exp1_SingleTask_TiTo_Subj17-24,2,23,dx,BlockProc2,300,m,0,m,1,,LONG,374
Exp1_SingleTask_TiTo_Subj17-24,2,23,dx,BlockProc2,300,z,100,z,1,,LONG,494
Exp1_SingleTask_TiTo_Subj17-24,2,23,dx,BlockProc2,150,z,0,z,1,,SHORT,484
Exp1_SingleTask_TiTo_Subj17-24,2,23,dx,BlockProc2,150,m,100,m,1,,SHORT,528
Exp1_SingleTask_TiTo_Subj17-24,2,23,dx,BlockProc2,150,z,100,z,1,,SHORT,574
Exp1_SingleTask_TiTo_Subj17-24,2,23,dx,BlockProc2,100,m,100,m,1,,SHORT,517
Exp1_SingleTask_TiTo_Subj17-24,2,23,dx,BlockProc2,100,z,0,z,1,,SHORT,509
Exp1_SingleTask_TiTo_Subj17-24,2,23,dx,BlockProc2,350,m,100,m,1,,LONG,396
Exp1_SingleTask_TiTo_Subj17-24,2,23,dx,BlockProc2,350,z,0,z,1,,LONG,440
Exp1_SingleTask_TiTo_Subj17-24,2,23,dx,BlockProc2,300,z,0,z,1,,LONG,420
Exp1_SingleTask_TiTo_Subj17-24,2,23,dx,BlockProc2,300,z,100,z,1,,LONG,449
Exp1_SingleTask_TiTo_Subj17-24,2,23,dx,BlockProc2,150,z,100,z,1,,SHORT,561
Exp1_SingleTask_TiTo_Subj17-24,2,23,dx,BlockProc2,300,m,0,m,1,,LONG,457
Exp1_SingleTask_TiTo_Subj17-24,2,23,dx,BlockProc2,100,z,100,z,1,,SHORT,538
Exp1_SingleTask_TiTo_Subj17-24,2,23,dx,BlockProc2,100,z,0,z,1,,SHORT,448
Exp1_SingleTask_TiTo_Subj17-24,2,23,dx,BlockProc2,150,z,0,z,1,,SHORT,434
Exp1_SingleTask_TiTo_Subj17-24,2,23,dx,BlockProc2,150,m,100,m,1,,SHORT,435
Exp1_SingleTask_TiTo_Subj17-24,2,23,dx,BlockProc2,300,m,100,m,1,,LONG,399
Exp1_SingleTask_TiTo_Subj17-24,2,23,dx,BlockProc2,150,m,0,m,1,,SHORT,390
Exp1_SingleTask_TiTo_Subj17-24,2,23,dx,BlockProc2,350,m,0,m,1,,LONG,405
Exp1_SingleTask_TiTo_Subj17-24,2,23,dx,BlockProc2,150,m,0,m,1,,SHORT,411
Exp1_SingleTask_TiTo_Subj17-24,2,23,dx,BlockProc2,100,m,0,m,1,,SHORT,672
Exp1_SingleTask_TiTo_Subj17-24,2,23,dx,BlockProc2,300,m,100,m,1,,LONG,396
Exp1_SingleTask_TiTo_Subj17-24,2,23,dx,BlockProc2,350,m,100,m,1,,LONG,407
Exp1_SingleTask_TiTo_Subj17-24,2,23,dx,BlockProc2,100,m,0,m,1,,SHORT,405
Exp1_SingleTask_TiTo_Subj17-24,2,23,dx,BlockProc2,350,z,100,z,1,,LONG,431
Exp1_SingleTask_TiTo_Subj17-24,2,23,dx,BlockProc2,350,m,100,m,1,,LONG,428
Exp1_SingleTask_TiTo_Subj17-24,2,23,dx,BlockProc2,350,m,0,m,1,,LONG,403
Exp1_SingleTask_TiTo_Subj17-24,2,23,dx,BlockProc2,100,m,100,m,1,,SHORT,520
Exp1_SingleTask_TiTo_Subj17-24,2,23,dx,BlockProc2,350,z,0,z,1,,LONG,447
Exp1_SingleTask_TiTo_Subj17-24,2,23,dx,BlockProc2,300,m,0,m,1,,LONG,436
Exp1_SingleTask_TiTo_Subj17-24,2,23,dx,BlockProc2,150,m,0,m,1,,SHORT,517
Exp1_SingleTask_TiTo_Subj17-24,2,23,dx,BlockProc2,300,z,0,z,1,,LONG,528
Exp1_SingleTask_TiTo_Subj17-24,2,23,dx,BlockProc2,100,z,100,z,1,,SHORT,528
Exp1_SingleTask_TiTo_Subj17-24,2,23,dx,BlockProc2,100,z,0,z,1,,SHORT,450
Exp1_SingleTask_TiTo_Subj17-24,2,23,dx,BlockProc2,300,z,0,z,1,,LONG,449
Exp1_SingleTask_TiTo_Subj17-24,2,23,dx,BlockProc3,350,m,100,m,1,,LONG,546
Exp1_SingleTask_TiTo_Subj17-24,2,23,dx,BlockProc3,350,z,0,z,1,,LONG,382
Exp1_SingleTask_TiTo_Subj17-24,2,23,dx,BlockProc3,100,m,0,m,1,,SHORT,458
Exp1_SingleTask_TiTo_Subj17-24,2,23,dx,BlockProc3,300,m,100,m,1,,LONG,426
Exp1_SingleTask_TiTo_Subj17-24,2,23,dx,BlockProc3,300,m,0,m,1,,LONG,372
Exp1_SingleTask_TiTo_Subj17-24,2,23,dx,BlockProc3,300,z,100,z,1,,LONG,486
Exp1_SingleTask_TiTo_Subj17-24,2,23,dx,BlockProc3,150,z,100,z,1,,SHORT,605
Exp1_SingleTask_TiTo_Subj17-24,2,23,dx,BlockProc3,150,z,100,z,1,,SHORT,574
Exp1_SingleTask_TiTo_Subj17-24,2,23,dx,BlockProc3,350,z,100,z,1,,LONG,462
Exp1_SingleTask_TiTo_Subj17-24,2,23,dx,BlockProc3,300,m,100,m,1,,LONG,437
Exp1_SingleTask_TiTo_Subj17-24,2,23,dx,BlockProc3,300,m,0,m,1,,LONG,323
Exp1_SingleTask_TiTo_Subj17-24,2,23,dx,BlockProc3,150,m,100,m,1,,SHORT,566
Exp1_SingleTask_TiTo_Subj17-24,2,23,dx,BlockProc3,100,z,100,z,1,,SHORT,728
Exp1_SingleTask_TiTo_Subj17-24,2,23,dx,BlockProc3,100,m,100,m,1,,SHORT,523
Exp1_SingleTask_TiTo_Subj17-24,2,23,dx,BlockProc3,350,m,0,m,1,,LONG,392
Exp1_SingleTask_TiTo_Subj17-24,2,23,dx,BlockProc3,150,m,0,m,1,,SHORT,388
Exp1_SingleTask_TiTo_Subj17-24,2,23,dx,BlockProc3,300,m,0,m,1,,LONG,362
Exp1_SingleTask_TiTo_Subj17-24,2,23,dx,BlockProc3,300,z,100,z,1,,LONG,444
Exp1_SingleTask_TiTo_Subj17-24,2,23,dx,BlockProc3,100,z,100,z,1,,SHORT,615
Exp1_SingleTask_TiTo_Subj17-24,2,23,dx,BlockProc3,150,z,0,z,1,,SHORT,488
Exp1_SingleTask_TiTo_Subj17-24,2,23,dx,BlockProc3,100,m,100,m,1,,SHORT,485
Exp1_SingleTask_TiTo_Subj17-24,2,23,dx,BlockProc3,150,z,100,z,1,,SHORT,567
Exp1_SingleTask_TiTo_Subj17-24,2,23,dx,BlockProc3,350,z,0,z,1,,LONG,782
Exp1_SingleTask_TiTo_Subj17-24,2,23,dx,BlockProc3,100,m,0,m,1,,SHORT,508
Exp1_SingleTask_TiTo_Subj17-24,2,23,dx,BlockProc3,100,z,0,z,1,,SHORT,600
Exp1_SingleTask_TiTo_Subj17-24,2,23,dx,BlockProc3,350,z,0,z,1,,LONG,526
Exp1_SingleTask_TiTo_Subj17-24,2,23,dx,BlockProc3,150,m,100,m,1,,SHORT,487
Exp1_SingleTask_TiTo_Subj17-24,2,23,dx,BlockProc3,350,m,0,m,1,,LONG,406
Exp1_SingleTask_TiTo_Subj17-24,2,23,dx,BlockProc3,300,z,0,z,1,,LONG,408
Exp1_SingleTask_TiTo_Subj17-24,2,23,dx,BlockProc3,350,m,100,m,1,,LONG,365
Exp1_SingleTask_TiTo_Subj17-24,2,23,dx,BlockProc3,350,m,0,m,1,,LONG,351
Exp1_SingleTask_TiTo_Subj17-24,2,23,dx,BlockProc3,350,m,100,m,1,,LONG,399
Exp1_SingleTask_TiTo_Subj17-24,2,23,dx,BlockProc3,150,z,0,z,1,,SHORT,464
Exp1_SingleTask_TiTo_Subj17-24,2,23,dx,BlockProc3,100,z,0,z,1,,SHORT,503
Exp1_SingleTask_TiTo_Subj17-24,2,23,dx,BlockProc3,100,z,100,z,1,,SHORT,687
Exp1_SingleTask_TiTo_Subj17-24,2,23,dx,BlockProc3,350,z,100,z,1,,LONG,561
Exp1_SingleTask_TiTo_Subj17-24,2,23,dx,BlockProc3,100,m,0,m,1,,SHORT,506
Exp1_SingleTask_TiTo_Subj17-24,2,23,dx,BlockProc3,350,z,100,z,1,,LONG,494
Exp1_SingleTask_TiTo_Subj17-24,2,23,dx,BlockProc3,300,z,100,z,1,,LONG,494
Exp1_SingleTask_TiTo_Subj17-24,2,23,dx,BlockProc3,150,m,0,m,1,,SHORT,471
Exp1_SingleTask_TiTo_Subj17-24,2,23,dx,BlockProc3,100,m,100,m,1,,SHORT,522
Exp1_SingleTask_TiTo_Subj17-24,2,23,dx,BlockProc3,150,m,100,m,1,,SHORT,592
Exp1_SingleTask_TiTo_Subj17-24,2,23,dx,BlockProc3,150,z,0,z,1,,SHORT,955
Exp1_SingleTask_TiTo_Subj17-24,2,23,dx,BlockProc3,150,m,0,m,1,,SHORT,598
Exp1_SingleTask_TiTo_Subj17-24,2,23,dx,BlockProc3,300,z,0,z,1,,LONG,561
Exp1_SingleTask_TiTo_Subj17-24,2,23,dx,BlockProc3,100,z,0,z,1,,SHORT,558
Exp1_SingleTask_TiTo_Subj17-24,2,23,dx,BlockProc3,300,m,100,m,1,,LONG,522
Exp1_SingleTask_TiTo_Subj17-24,2,23,dx,BlockProc3,300,z,0,z,1,,LONG,491
Exp1_SingleTask_TiTo_Subj17-24,2,23,dx,BlockProc3,100,m,100,m,1,,SHORT,520
Exp1_SingleTask_TiTo_Subj17-24,2,23,dx,BlockProc3,100,z,0,z,1,,SHORT,571
Exp1_SingleTask_TiTo_Subj17-24,2,23,dx,BlockProc3,300,z,100,z,1,,LONG,605
Exp1_SingleTask_TiTo_Subj17-24,2,23,dx,BlockProc3,100,m,100,m,1,,SHORT,557
Exp1_SingleTask_TiTo_Subj17-24,2,23,dx,BlockProc3,150,z,0,z,1,,SHORT,628
Exp1_SingleTask_TiTo_Subj17-24,2,23,dx,BlockProc3,100,m,100,m,1,,SHORT,603
Exp1_SingleTask_TiTo_Subj17-24,2,23,dx,BlockProc3,300,m,100,m,1,,LONG,473
Exp1_SingleTask_TiTo_Subj17-24,2,23,dx,BlockProc3,300,z,0,z,1,,LONG,485
Exp1_SingleTask_TiTo_Subj17-24,2,23,dx,BlockProc3,100,m,0,m,1,,SHORT,558
Exp1_SingleTask_TiTo_Subj17-24,2,23,dx,BlockProc3,300,z,100,z,1,,LONG,497
Exp1_SingleTask_TiTo_Subj17-24,2,23,dx,BlockProc3,350,m,100,m,1,,LONG,448
Exp1_SingleTask_TiTo_Subj17-24,2,23,dx,BlockProc3,300,m,100,m,1,,LONG,621
Exp1_SingleTask_TiTo_Subj17-24,2,23,dx,BlockProc3,350,m,100,m,1,,LONG,475
Exp1_SingleTask_TiTo_Subj17-24,2,23,dx,BlockProc3,150,m,0,m,1,,SHORT,473
Exp1_SingleTask_TiTo_Subj17-24,2,23,dx,BlockProc3,300,m,0,m,1,,LONG,408
Exp1_SingleTask_TiTo_Subj17-24,2,23,dx,BlockProc3,150,m,100,m,1,,SHORT,816
Exp1_SingleTask_TiTo_Subj17-24,2,23,dx,BlockProc3,100,z,0,z,1,,SHORT,418
Exp1_SingleTask_TiTo_Subj17-24,2,23,dx,BlockProc3,300,m,0,m,1,,LONG,393
Exp1_SingleTask_TiTo_Subj17-24,2,23,dx,BlockProc3,300,z,100,z,1,,LONG,561
Exp1_SingleTask_TiTo_Subj17-24,2,23,dx,BlockProc3,150,m,100,m,1,,SHORT,442
Exp1_SingleTask_TiTo_Subj17-24,2,23,dx,BlockProc3,100,z,100,z,1,,SHORT,498
Exp1_SingleTask_TiTo_Subj17-24,2,23,dx,BlockProc3,350,z,0,z,1,,LONG,489
Exp1_SingleTask_TiTo_Subj17-24,2,23,dx,BlockProc3,150,z,0,z,1,,SHORT,432
Exp1_SingleTask_TiTo_Subj17-24,2,23,dx,BlockProc3,300,m,100,m,1,,LONG,352
Exp1_SingleTask_TiTo_Subj17-24,2,23,dx,BlockProc3,150,m,0,m,1,,SHORT,310
Exp1_SingleTask_TiTo_Subj17-24,2,23,dx,BlockProc3,350,z,0,z,1,,LONG,417
Exp1_SingleTask_TiTo_Subj17-24,2,23,dx,BlockProc3,100,z,0,z,1,,SHORT,472
Exp1_SingleTask_TiTo_Subj17-24,2,23,dx,BlockProc3,100,z,100,z,1,,SHORT,469
Exp1_SingleTask_TiTo_Subj17-24,2,23,dx,BlockProc3,100,z,100,z,1,,SHORT,476
Exp1_SingleTask_TiTo_Subj17-24,2,23,dx,BlockProc3,300,z,0,z,1,,LONG,409
Exp1_SingleTask_TiTo_Subj17-24,2,23,dx,BlockProc3,150,z,100,z,1,,SHORT,498
Exp1_SingleTask_TiTo_Subj17-24,2,23,dx,BlockProc3,100,m,0,m,1,,SHORT,453
Exp1_SingleTask_TiTo_Subj17-24,2,23,dx,BlockProc3,300,z,0,z,1,,LONG,434
Exp1_SingleTask_TiTo_Subj17-24,2,23,dx,BlockProc3,350,z,100,z,1,,LONG,504
Exp1_SingleTask_TiTo_Subj17-24,2,23,dx,BlockProc3,100,m,0,m,1,,SHORT,430
Exp1_SingleTask_TiTo_Subj17-24,2,23,dx,BlockProc3,350,m,0,m,1,,LONG,427
Exp1_SingleTask_TiTo_Subj17-24,2,23,dx,BlockProc3,350,m,0,m,1,,LONG,339
Exp1_SingleTask_TiTo_Subj17-24,2,23,dx,BlockProc3,150,z,100,z,1,,SHORT,489
Exp1_SingleTask_TiTo_Subj17-24,2,23,dx,BlockProc3,150,z,0,z,1,,SHORT,425
Exp1_SingleTask_TiTo_Subj17-24,2,23,dx,BlockProc3,350,z,100,z,1,,LONG,505
Exp1_SingleTask_TiTo_Subj17-24,2,23,dx,BlockProc3,150,m,100,m,1,,SHORT,621
Exp1_SingleTask_TiTo_Subj17-24,2,23,dx,BlockProc3,150,z,100,z,1,,SHORT,558
Exp1_SingleTask_TiTo_Subj17-24,2,23,dx,BlockProc3,300,m,0,m,1,,LONG,435
Exp1_SingleTask_TiTo_Subj17-24,2,23,dx,BlockProc3,350,z,100,z,1,,LONG,574
Exp1_SingleTask_TiTo_Subj17-24,2,23,dx,BlockProc3,350,m,0,m,1,,LONG,384
Exp1_SingleTask_TiTo_Subj17-24,2,23,dx,BlockProc3,350,z,0,z,1,,LONG,452
Exp1_SingleTask_TiTo_Subj17-24,2,23,dx,BlockProc3,150,m,0,m,1,,SHORT,440
Exp1_SingleTask_TiTo_Subj17-24,2,23,dx,BlockProc3,350,m,100,m,1,,LONG,449
Exp1_SingleTask_TiTo_Subj17-24,2,23,dx,BlockProc3,300,m,0,m,1,,LONG,365
Exp1_SingleTask_TiTo_Subj17-24,2,23,dx,BlockProc3,150,z,100,z,1,,SHORT,587
Exp1_SingleTask_TiTo_Subj17-24,2,23,dx,BlockProc3,300,z,100,z,1,,LONG,442
Exp1_SingleTask_TiTo_Subj17-24,2,23,dx,BlockProc3,100,z,100,z,1,,SHORT,631
Exp1_SingleTask_TiTo_Subj17-24,2,23,dx,BlockProc3,100,m,0,m,1,,SHORT,500
Exp1_SingleTask_TiTo_Subj17-24,2,23,dx,BlockProc3,150,z,100,z,1,,SHORT,581
Exp1_SingleTask_TiTo_Subj17-24,2,23,dx,BlockProc3,150,z,0,z,1,,SHORT,529
Exp1_SingleTask_TiTo_Subj17-24,2,23,dx,BlockProc3,350,z,0,z,1,,LONG,627
Exp1_SingleTask_TiTo_Subj17-24,2,23,dx,BlockProc3,100,z,0,z,1,,SHORT,467
Exp1_SingleTask_TiTo_Subj17-24,2,23,dx,BlockProc3,150,m,100,m,1,,SHORT,428
Exp1_SingleTask_TiTo_Subj17-24,2,23,dx,BlockProc3,350,m,0,m,1,,LONG,398
Exp1_SingleTask_TiTo_Subj17-24,2,23,dx,BlockProc3,350,z,0,z,1,,LONG,562
Exp1_SingleTask_TiTo_Subj17-24,2,23,dx,BlockProc3,300,m,100,m,1,,LONG,403
Exp1_SingleTask_TiTo_Subj17-24,2,23,dx,BlockProc3,150,m,100,m,1,,SHORT,475
Exp1_SingleTask_TiTo_Subj17-24,2,23,dx,BlockProc3,350,m,100,m,1,,LONG,385
Exp1_SingleTask_TiTo_Subj17-24,2,23,dx,BlockProc3,150,m,0,m,1,,SHORT,470
Exp1_SingleTask_TiTo_Subj17-24,2,23,dx,BlockProc3,300,z,100,z,1,,LONG,431
Exp1_SingleTask_TiTo_Subj17-24,2,23,dx,BlockProc3,150,z,0,z,1,,SHORT,419
Exp1_SingleTask_TiTo_Subj17-24,2,23,dx,BlockProc3,300,z,100,z,1,,LONG,486
Exp1_SingleTask_TiTo_Subj17-24,2,23,dx,BlockProc3,350,z,100,z,1,,LONG,389
Exp1_SingleTask_TiTo_Subj17-24,2,23,dx,BlockProc3,100,z,100,z,1,,SHORT,678
Exp1_SingleTask_TiTo_Subj17-24,2,23,dx,BlockProc3,350,m,100,m,1,,LONG,381
Exp1_SingleTask_TiTo_Subj17-24,2,23,dx,BlockProc3,100,z,0,z,1,,SHORT,451
Exp1_SingleTask_TiTo_Subj17-24,2,23,dx,BlockProc3,150,z,100,z,1,,SHORT,474
Exp1_SingleTask_TiTo_Subj17-24,2,23,dx,BlockProc3,300,z,0,z,1,,LONG,464
Exp1_SingleTask_TiTo_Subj17-24,2,23,dx,BlockProc3,350,m,0,m,1,,LONG,387
Exp1_SingleTask_TiTo_Subj17-24,2,23,dx,BlockProc3,350,z,100,z,1,,LONG,435
Exp1_SingleTask_TiTo_Subj17-24,2,23,dx,BlockProc3,150,m,100,space,0,,SHORT,565
Exp1_SingleTask_TiTo_Subj17-24,2,23,dx,BlockProc3,150,m,0,m,1,,SHORT,436
Exp1_SingleTask_TiTo_Subj17-24,2,23,dx,BlockProc3,100,m,0,m,1,,SHORT,462
Exp1_SingleTask_TiTo_Subj17-24,2,23,dx,BlockProc3,350,m,100,m,1,,LONG,458
Exp1_SingleTask_TiTo_Subj17-24,2,23,dx,BlockProc3,350,m,0,m,1,,LONG,377
Exp1_SingleTask_TiTo_Subj17-24,2,23,dx,BlockProc3,150,z,0,z,1,,SHORT,443
Exp1_SingleTask_TiTo_Subj17-24,2,23,dx,BlockProc3,350,z,100,z,1,,LONG,552
Exp1_SingleTask_TiTo_Subj17-24,2,23,dx,BlockProc3,300,m,0,m,1,,LONG,328
Exp1_SingleTask_TiTo_Subj17-24,2,23,dx,BlockProc3,300,m,0,m,1,,LONG,342
Exp1_SingleTask_TiTo_Subj17-24,2,23,dx,BlockProc3,100,m,0,m,1,,SHORT,510
Exp1_SingleTask_TiTo_Subj17-24,2,23,dx,BlockProc3,300,z,0,z,1,,LONG,395
Exp1_SingleTask_TiTo_Subj17-24,2,23,dx,BlockProc3,300,m,100,m,1,,LONG,439
Exp1_SingleTask_TiTo_Subj17-24,2,23,dx,BlockProc3,300,z,0,z,1,,LONG,475
Exp1_SingleTask_TiTo_Subj17-24,2,23,dx,BlockProc3,350,z,0,z,1,,LONG,519
Exp1_SingleTask_TiTo_Subj17-24,2,23,dx,BlockProc3,100,m,100,m,1,,SHORT,612
Exp1_SingleTask_TiTo_Subj17-24,2,23,dx,BlockProc3,300,m,100,m,1,,LONG,557
Exp1_SingleTask_TiTo_Subj17-24,2,23,dx,BlockProc3,100,m,100,m,1,,SHORT,496
Exp1_SingleTask_TiTo_Subj17-24,2,23,dx,BlockProc3,150,m,0,m,1,,SHORT,429
Exp1_SingleTask_TiTo_Subj17-24,2,23,dx,BlockProc3,100,z,100,z,1,,SHORT,585
Exp1_SingleTask_TiTo_Subj17-24,2,23,dx,BlockProc3,100,z,0,z,1,,SHORT,577
Exp1_SingleTask_TiTo_Subj17-24,2,23,dx,BlockProc3,100,m,100,m,1,,SHORT,564
Exp1_SingleTask_TiTo_Subj17-24,2,23,dx,BlockProc4,300,m,0,m,1,,LONG,700
Exp1_SingleTask_TiTo_Subj17-24,2,23,dx,BlockProc4,150,z,0,z,1,,SHORT,442
Exp1_SingleTask_TiTo_Subj17-24,2,23,dx,BlockProc4,100,m,0,m,1,,SHORT,386
Exp1_SingleTask_TiTo_Subj17-24,2,23,dx,BlockProc4,100,m,100,m,1,,SHORT,463
Exp1_SingleTask_TiTo_Subj17-24,2,23,dx,BlockProc4,100,m,0,m,1,,SHORT,419
Exp1_SingleTask_TiTo_Subj17-24,2,23,dx,BlockProc4,350,m,100,m,1,,LONG,427
Exp1_SingleTask_TiTo_Subj17-24,2,23,dx,BlockProc4,150,m,0,m,1,,SHORT,495
Exp1_SingleTask_TiTo_Subj17-24,2,23,dx,BlockProc4,300,m,100,m,1,,LONG,482
Exp1_SingleTask_TiTo_Subj17-24,2,23,dx,BlockProc4,100,z,0,z,1,,SHORT,436
Exp1_SingleTask_TiTo_Subj17-24,2,23,dx,BlockProc4,300,z,100,z,1,,LONG,520
Exp1_SingleTask_TiTo_Subj17-24,2,23,dx,BlockProc4,150,z,100,z,1,,SHORT,511
Exp1_SingleTask_TiTo_Subj17-24,2,23,dx,BlockProc4,350,z,100,z,1,,LONG,500
Exp1_SingleTask_TiTo_Subj17-24,2,23,dx,BlockProc4,100,z,100,z,1,,SHORT,551
Exp1_SingleTask_TiTo_Subj17-24,2,23,dx,BlockProc4,350,m,0,m,1,,LONG,376
Exp1_SingleTask_TiTo_Subj17-24,2,23,dx,BlockProc4,350,m,100,m,1,,LONG,449
Exp1_SingleTask_TiTo_Subj17-24,2,23,dx,BlockProc4,350,m,100,m,1,,LONG,401
Exp1_SingleTask_TiTo_Subj17-24,2,23,dx,BlockProc4,350,z,0,z,1,,LONG,452
Exp1_SingleTask_TiTo_Subj17-24,2,23,dx,BlockProc4,300,z,100,z,1,,LONG,452
Exp1_SingleTask_TiTo_Subj17-24,2,23,dx,BlockProc4,150,z,100,z,1,,SHORT,784
Exp1_SingleTask_TiTo_Subj17-24,2,23,dx,BlockProc4,300,m,100,m,1,,LONG,444
Exp1_SingleTask_TiTo_Subj17-24,2,23,dx,BlockProc4,100,z,0,z,1,,SHORT,505
Exp1_SingleTask_TiTo_Subj17-24,2,23,dx,BlockProc4,300,m,0,m,1,,LONG,441
Exp1_SingleTask_TiTo_Subj17-24,2,23,dx,BlockProc4,350,z,0,z,1,,LONG,428
Exp1_SingleTask_TiTo_Subj17-24,2,23,dx,BlockProc4,100,m,0,m,1,,SHORT,406
Exp1_SingleTask_TiTo_Subj17-24,2,23,dx,BlockProc4,350,m,0,m,1,,LONG,399
Exp1_SingleTask_TiTo_Subj17-24,2,23,dx,BlockProc4,150,m,0,m,1,,SHORT,383
Exp1_SingleTask_TiTo_Subj17-24,2,23,dx,BlockProc4,300,z,100,z,1,,LONG,429
Exp1_SingleTask_TiTo_Subj17-24,2,23,dx,BlockProc4,150,m,100,m,1,,SHORT,431
Exp1_SingleTask_TiTo_Subj17-24,2,23,dx,BlockProc4,150,m,100,m,1,,SHORT,457
Exp1_SingleTask_TiTo_Subj17-24,2,23,dx,BlockProc4,300,z,0,z,1,,LONG,442
Exp1_SingleTask_TiTo_Subj17-24,2,23,dx,BlockProc4,350,z,0,z,1,,LONG,596
Exp1_SingleTask_TiTo_Subj17-24,2,23,dx,BlockProc4,350,z,100,z,1,,LONG,527
Exp1_SingleTask_TiTo_Subj17-24,2,23,dx,BlockProc4,100,m,100,m,1,,SHORT,512
Exp1_SingleTask_TiTo_Subj17-24,2,23,dx,BlockProc4,350,m,0,m,1,,LONG,489
Exp1_SingleTask_TiTo_Subj17-24,2,23,dx,BlockProc4,100,m,100,m,1,,SHORT,578
Exp1_SingleTask_TiTo_Subj17-24,2,23,dx,BlockProc4,300,m,100,m,1,,LONG,517
Exp1_SingleTask_TiTo_Subj17-24,2,23,dx,BlockProc4,150,m,0,m,1,,SHORT,535
Exp1_SingleTask_TiTo_Subj17-24,2,23,dx,BlockProc4,100,z,100,z,1,,SHORT,544
Exp1_SingleTask_TiTo_Subj17-24,2,23,dx,BlockProc4,150,m,100,m,1,,SHORT,615
Exp1_SingleTask_TiTo_Subj17-24,2,23,dx,BlockProc4,150,z,0,z,1,,SHORT,625
Exp1_SingleTask_TiTo_Subj17-24,2,23,dx,BlockProc4,100,z,100,z,1,,SHORT,560
Exp1_SingleTask_TiTo_Subj17-24,2,23,dx,BlockProc4,100,z,0,z,1,,SHORT,521
Exp1_SingleTask_TiTo_Subj17-24,2,23,dx,BlockProc4,150,z,0,z,1,,SHORT,438
Exp1_SingleTask_TiTo_Subj17-24,2,23,dx,BlockProc4,150,z,100,z,1,,SHORT,519
Exp1_SingleTask_TiTo_Subj17-24,2,23,dx,BlockProc4,350,z,100,z,1,,LONG,604
Exp1_SingleTask_TiTo_Subj17-24,2,23,dx,BlockProc4,300,m,0,m,1,,LONG,431
Exp1_SingleTask_TiTo_Subj17-24,2,23,dx,BlockProc4,300,z,0,z,1,,LONG,498
Exp1_SingleTask_TiTo_Subj17-24,2,23,dx,BlockProc4,300,z,0,z,1,,LONG,690
Exp1_SingleTask_TiTo_Subj17-24,2,23,dx,BlockProc4,350,m,0,m,1,,LONG,385
Exp1_SingleTask_TiTo_Subj17-24,2,23,dx,BlockProc4,150,z,0,z,1,,SHORT,570
Exp1_SingleTask_TiTo_Subj17-24,2,23,dx,BlockProc4,100,z,0,z,1,,SHORT,510
Exp1_SingleTask_TiTo_Subj17-24,2,23,dx,BlockProc4,300,z,100,z,1,,LONG,466
Exp1_SingleTask_TiTo_Subj17-24,2,23,dx,BlockProc4,350,z,0,z,1,,LONG,482
Exp1_SingleTask_TiTo_Subj17-24,2,23,dx,BlockProc4,300,m,0,m,1,,LONG,437
Exp1_SingleTask_TiTo_Subj17-24,2,23,dx,BlockProc4,150,z,100,z,1,,SHORT,596
Exp1_SingleTask_TiTo_Subj17-24,2,23,dx,BlockProc4,150,z,0,z,1,,SHORT,446
Exp1_SingleTask_TiTo_Subj17-24,2,23,dx,BlockProc4,350,m,0,m,1,,LONG,408
Exp1_SingleTask_TiTo_Subj17-24,2,23,dx,BlockProc4,350,z,100,z,1,,LONG,437
Exp1_SingleTask_TiTo_Subj17-24,2,23,dx,BlockProc4,100,z,100,z,1,,SHORT,500
Exp1_SingleTask_TiTo_Subj17-24,2,23,dx,BlockProc4,300,m,100,m,1,,LONG,397
Exp1_SingleTask_TiTo_Subj17-24,2,23,dx,BlockProc4,100,m,0,m,1,,SHORT,558
Exp1_SingleTask_TiTo_Subj17-24,2,23,dx,BlockProc4,300,z,100,z,1,,LONG,553
Exp1_SingleTask_TiTo_Subj17-24,2,23,dx,BlockProc4,350,m,100,m,1,,LONG,420
Exp1_SingleTask_TiTo_Subj17-24,2,23,dx,BlockProc4,150,m,0,m,1,,SHORT,444
Exp1_SingleTask_TiTo_Subj17-24,2,23,dx,BlockProc4,300,m,100,m,1,,LONG,398
Exp1_SingleTask_TiTo_Subj17-24,2,23,dx,BlockProc4,150,m,0,m,1,,SHORT,414
Exp1_SingleTask_TiTo_Subj17-24,2,23,dx,BlockProc4,350,z,100,z,1,,LONG,419
Exp1_SingleTask_TiTo_Subj17-24,2,23,dx,BlockProc4,300,m,0,m,1,,LONG,355
Exp1_SingleTask_TiTo_Subj17-24,2,23,dx,BlockProc4,350,z,100,z,1,,LONG,555
Exp1_SingleTask_TiTo_Subj17-24,2,23,dx,BlockProc4,350,z,0,z,1,,LONG,482
Exp1_SingleTask_TiTo_Subj17-24,2,23,dx,BlockProc4,300,z,0,z,1,,LONG,470
Exp1_SingleTask_TiTo_Subj17-24,2,23,dx,BlockProc4,100,z,100,z,1,,SHORT,499
Exp1_SingleTask_TiTo_Subj17-24,2,23,dx,BlockProc4,350,m,100,m,1,,LONG,429
Exp1_SingleTask_TiTo_Subj17-24,2,23,dx,BlockProc4,350,m,0,m,1,,LONG,400
Exp1_SingleTask_TiTo_Subj17-24,2,23,dx,BlockProc4,150,m,100,m,1,,SHORT,479
Exp1_SingleTask_TiTo_Subj17-24,2,23,dx,BlockProc4,350,m,100,m,1,,LONG,373
Exp1_SingleTask_TiTo_Subj17-24,2,23,dx,BlockProc4,150,m,100,m,1,,SHORT,493
Exp1_SingleTask_TiTo_Subj17-24,2,23,dx,BlockProc4,150,m,0,m,1,,SHORT,428
Exp1_SingleTask_TiTo_Subj17-24,2,23,dx,BlockProc4,300,m,100,m,1,,LONG,436
Exp1_SingleTask_TiTo_Subj17-24,2,23,dx,BlockProc4,100,z,100,z,1,,SHORT,539
Exp1_SingleTask_TiTo_Subj17-24,2,23,dx,BlockProc4,150,z,100,z,1,,SHORT,454
Exp1_SingleTask_TiTo_Subj17-24,2,23,dx,BlockProc4,150,z,0,z,1,,SHORT,382
Exp1_SingleTask_TiTo_Subj17-24,2,23,dx,BlockProc4,100,m,100,m,1,,SHORT,490
Exp1_SingleTask_TiTo_Subj17-24,2,23,dx,BlockProc4,150,z,100,z,1,,SHORT,482
Exp1_SingleTask_TiTo_Subj17-24,2,23,dx,BlockProc4,300,z,0,z,1,,LONG,575
Exp1_SingleTask_TiTo_Subj17-24,2,23,dx,BlockProc4,150,m,100,m,1,,SHORT,443
Exp1_SingleTask_TiTo_Subj17-24,2,23,dx,BlockProc4,300,m,0,m,1,,LONG,429
Exp1_SingleTask_TiTo_Subj17-24,2,23,dx,BlockProc4,100,m,0,m,1,,SHORT,464
Exp1_SingleTask_TiTo_Subj17-24,2,23,dx,BlockProc4,300,z,0,z,1,,LONG,471
Exp1_SingleTask_TiTo_Subj17-24,2,23,dx,BlockProc4,100,m,100,m,1,,SHORT,628
Exp1_SingleTask_TiTo_Subj17-24,2,23,dx,BlockProc4,100,z,0,z,1,,SHORT,463
Exp1_SingleTask_TiTo_Subj17-24,2,23,dx,BlockProc4,300,z,100,z,1,,LONG,490
Exp1_SingleTask_TiTo_Subj17-24,2,23,dx,BlockProc4,100,m,0,m,1,,SHORT,388
Exp1_SingleTask_TiTo_Subj17-24,2,23,dx,BlockProc4,350,z,0,z,1,,LONG,480
Exp1_SingleTask_TiTo_Subj17-24,2,23,dx,BlockProc4,100,z,0,z,1,,SHORT,586
Exp1_SingleTask_TiTo_Subj17-24,2,23,dx,BlockProc4,100,m,100,m,1,,SHORT,539
Exp1_SingleTask_TiTo_Subj17-24,2,23,dx,BlockProc4,100,z,0,z,1,,SHORT,439
Exp1_SingleTask_TiTo_Subj17-24,2,23,dx,BlockProc4,100,m,0,m,1,,SHORT,376
Exp1_SingleTask_TiTo_Subj17-24,2,23,dx,BlockProc4,350,z,0,z,1,,LONG,365
Exp1_SingleTask_TiTo_Subj17-24,2,23,dx,BlockProc4,150,m,100,m,1,,SHORT,412
Exp1_SingleTask_TiTo_Subj17-24,2,23,dx,BlockProc4,100,z,100,z,1,,SHORT,451
Exp1_SingleTask_TiTo_Subj17-24,2,23,dx,BlockProc4,350,m,100,m,1,,LONG,436
Exp1_SingleTask_TiTo_Subj17-24,2,23,dx,BlockProc4,300,m,100,m,1,,LONG,389
Exp1_SingleTask_TiTo_Subj17-24,2,23,dx,BlockProc4,100,z,100,z,1,,SHORT,511
Exp1_SingleTask_TiTo_Subj17-24,2,23,dx,BlockProc4,300,z,100,z,1,,LONG,459
Exp1_SingleTask_TiTo_Subj17-24,2,23,dx,BlockProc4,100,z,100,z,1,,SHORT,480
Exp1_SingleTask_TiTo_Subj17-24,2,23,dx,BlockProc4,100,m,100,m,1,,SHORT,480
Exp1_SingleTask_TiTo_Subj17-24,2,23,dx,BlockProc4,150,m,0,m,1,,SHORT,428
Exp1_SingleTask_TiTo_Subj17-24,2,23,dx,BlockProc4,300,m,0,m,1,,LONG,386
Exp1_SingleTask_TiTo_Subj17-24,2,23,dx,BlockProc4,300,m,0,m,1,,LONG,331
Exp1_SingleTask_TiTo_Subj17-24,2,23,dx,BlockProc4,100,m,100,m,1,,SHORT,712
Exp1_SingleTask_TiTo_Subj17-24,2,23,dx,BlockProc4,300,z,100,z,1,,LONG,452
Exp1_SingleTask_TiTo_Subj17-24,2,23,dx,BlockProc4,350,m,100,m,1,,LONG,421
Exp1_SingleTask_TiTo_Subj17-24,2,23,dx,BlockProc4,150,m,100,m,1,,SHORT,458
Exp1_SingleTask_TiTo_Subj17-24,2,23,dx,BlockProc4,100,z,0,z,1,,SHORT,444
Exp1_SingleTask_TiTo_Subj17-24,2,23,dx,BlockProc4,150,z,100,z,1,,SHORT,490
Exp1_SingleTask_TiTo_Subj17-24,2,23,dx,BlockProc4,100,m,0,m,1,,SHORT,407
Exp1_SingleTask_TiTo_Subj17-24,2,23,dx,BlockProc4,150,m,0,m,1,,SHORT,384
Exp1_SingleTask_TiTo_Subj17-24,2,23,dx,BlockProc4,350,z,100,z,1,,LONG,491
Exp1_SingleTask_TiTo_Subj17-24,2,23,dx,BlockProc4,300,m,0,m,1,,LONG,346
Exp1_SingleTask_TiTo_Subj17-24,2,23,dx,BlockProc4,350,z,100,z,1,,LONG,378
Exp1_SingleTask_TiTo_Subj17-24,2,23,dx,BlockProc4,150,z,0,z,1,,SHORT,463
Exp1_SingleTask_TiTo_Subj17-24,2,23,dx,BlockProc4,150,m,0,m,1,,SHORT,480
Exp1_SingleTask_TiTo_Subj17-24,2,23,dx,BlockProc4,300,m,100,m,1,,LONG,578
Exp1_SingleTask_TiTo_Subj17-24,2,23,dx,BlockProc4,350,z,0,z,1,,LONG,387
Exp1_SingleTask_TiTo_Subj17-24,2,23,dx,BlockProc4,350,z,100,z,1,,LONG,488
Exp1_SingleTask_TiTo_Subj17-24,2,23,dx,BlockProc4,300,z,100,z,1,,LONG,465
Exp1_SingleTask_TiTo_Subj17-24,2,23,dx,BlockProc4,150,z,0,z,1,,SHORT,508
Exp1_SingleTask_TiTo_Subj17-24,2,23,dx,BlockProc4,150,z,0,z,1,,SHORT,495
Exp1_SingleTask_TiTo_Subj17-24,2,23,dx,BlockProc4,150,z,100,z,1,,SHORT,401
Exp1_SingleTask_TiTo_Subj17-24,2,23,dx,BlockProc4,100,z,0,z,1,,SHORT,489
Exp1_SingleTask_TiTo_Subj17-24,2,23,dx,BlockProc4,300,m,100,m,1,,LONG,412
Exp1_SingleTask_TiTo_Subj17-24,2,23,dx,BlockProc4,350,z,0,z,1,,LONG,461
Exp1_SingleTask_TiTo_Subj17-24,2,23,dx,BlockProc4,300,z,0,z,1,,LONG,418
Exp1_SingleTask_TiTo_Subj17-24,2,23,dx,BlockProc4,300,z,0,z,1,,LONG,457
Exp1_SingleTask_TiTo_Subj17-24,2,23,dx,BlockProc4,350,m,0,m,1,,LONG,475
Exp1_SingleTask_TiTo_Subj17-24,2,23,dx,BlockProc4,350,m,100,m,1,,LONG,509
Exp1_SingleTask_TiTo_Subj17-24,2,23,dx,BlockProc4,300,z,0,z,1,,LONG,666
Exp1_SingleTask_TiTo_Subj17-24,2,23,dx,BlockProc4,350,m,0,m,1,,LONG,367
Exp1_SingleTask_TiTo_Subj17-24,2,23,dx,BlockProc4,150,z,100,z,1,,SHORT,478
Exp1_SingleTask_TiTo_Subj17-24,2,23,dx,BlockProc4,350,m,0,m,1,,LONG,348
Exp1_SingleTask_TiTo_Subj17-24,2,23,dx,BlockProc4,150,m,100,m,1,,SHORT,506
Exp1_SingleTask_TiTo_Subj17-24,2,23,dx,BlockProc4,100,m,100,m,1,,SHORT,442
Exp1_SingleTask_TiTo_Subj17-24,2,23,dx,BlockProc4,100,m,0,m,1,,SHORT,475
Exp1_SingleTask_TiTo_Subj17-24,3,24,dx,BlockProc1,300,m,100,m,1,576,LONG,706
Exp1_SingleTask_TiTo_Subj17-24,3,24,dx,BlockProc1,300,m,0,m,1,,LONG,611
Exp1_SingleTask_TiTo_Subj17-24,3,24,dx,BlockProc1,150,z,0,z,1,,SHORT,935
Exp1_SingleTask_TiTo_Subj17-24,3,24,dx,BlockProc1,100,m,100,m,1,,SHORT,684
Exp1_SingleTask_TiTo_Subj17-24,3,24,dx,BlockProc1,300,z,0,z,1,,LONG,704
Exp1_SingleTask_TiTo_Subj17-24,3,24,dx,BlockProc1,100,z,0,z,1,,SHORT,555
Exp1_SingleTask_TiTo_Subj17-24,3,24,dx,BlockProc1,350,m,100,m,1,,LONG,591
Exp1_SingleTask_TiTo_Subj17-24,3,24,dx,BlockProc1,300,m,100,m,1,,LONG,714
Exp1_SingleTask_TiTo_Subj17-24,3,24,dx,BlockProc1,300,m,100,m,1,,LONG,664
Exp1_SingleTask_TiTo_Subj17-24,3,24,dx,BlockProc1,300,z,0,z,1,,LONG,549
Exp1_SingleTask_TiTo_Subj17-24,3,24,dx,BlockProc1,350,m,100,m,1,,LONG,530
Exp1_SingleTask_TiTo_Subj17-24,3,24,dx,BlockProc1,350,z,0,z,1,,LONG,528
Exp1_SingleTask_TiTo_Subj17-24,3,24,dx,BlockProc1,350,m,0,m,1,,LONG,515
Exp1_SingleTask_TiTo_Subj17-24,3,24,dx,BlockProc1,150,m,100,m,1,,SHORT,876
Exp1_SingleTask_TiTo_Subj17-24,3,24,dx,BlockProc1,150,m,100,m,1,,SHORT,592
Exp1_SingleTask_TiTo_Subj17-24,3,24,dx,BlockProc1,100,z,0,z,1,,SHORT,528
Exp1_SingleTask_TiTo_Subj17-24,3,24,dx,BlockProc1,100,m,0,m,1,,SHORT,486
Exp1_SingleTask_TiTo_Subj17-24,3,24,dx,BlockProc1,150,m,0,m,1,,SHORT,616
Exp1_SingleTask_TiTo_Subj17-24,3,24,dx,BlockProc1,300,z,100,z,1,,LONG,758
Exp1_SingleTask_TiTo_Subj17-24,3,24,dx,BlockProc1,350,m,0,m,1,,LONG,644
Exp1_SingleTask_TiTo_Subj17-24,3,24,dx,BlockProc1,300,z,100,z,1,,LONG,487
Exp1_SingleTask_TiTo_Subj17-24,3,24,dx,BlockProc1,150,z,100,z,1,,SHORT,646
Exp1_SingleTask_TiTo_Subj17-24,3,24,dx,BlockProc1,350,m,0,m,1,,LONG,675
Exp1_SingleTask_TiTo_Subj17-24,3,24,dx,BlockProc1,300,z,100,z,1,,LONG,720
Exp1_SingleTask_TiTo_Subj17-24,3,24,dx,BlockProc1,350,z,0,z,1,,LONG,633
Exp1_SingleTask_TiTo_Subj17-24,3,24,dx,BlockProc1,100,z,100,z,1,,SHORT,644
Exp1_SingleTask_TiTo_Subj17-24,3,24,dx,BlockProc1,100,z,0,z,1,,SHORT,631
Exp1_SingleTask_TiTo_Subj17-24,3,24,dx,BlockProc1,100,m,100,m,1,,SHORT,640
Exp1_SingleTask_TiTo_Subj17-24,3,24,dx,BlockProc1,350,z,100,z,1,,LONG,890
Exp1_SingleTask_TiTo_Subj17-24,3,24,dx,BlockProc1,100,z,100,z,1,,SHORT,624
Exp1_SingleTask_TiTo_Subj17-24,3,24,dx,BlockProc1,100,m,100,m,1,,SHORT,656
Exp1_SingleTask_TiTo_Subj17-24,3,24,dx,BlockProc1,300,m,0,m,1,,LONG,731
Exp1_SingleTask_TiTo_Subj17-24,3,24,dx,BlockProc1,350,m,100,m,1,,LONG,629
Exp1_SingleTask_TiTo_Subj17-24,3,24,dx,BlockProc1,150,z,100,z,1,,SHORT,571
Exp1_SingleTask_TiTo_Subj17-24,3,24,dx,BlockProc1,100,z,100,z,1,,SHORT,553
Exp1_SingleTask_TiTo_Subj17-24,3,24,dx,BlockProc1,150,m,0,m,1,,SHORT,658
Exp1_SingleTask_TiTo_Subj17-24,3,24,dx,BlockProc1,150,z,0,z,1,,SHORT,582
Exp1_SingleTask_TiTo_Subj17-24,3,24,dx,BlockProc1,300,z,0,z,1,,LONG,674
Exp1_SingleTask_TiTo_Subj17-24,3,24,dx,BlockProc1,150,m,100,m,1,,SHORT,594
Exp1_SingleTask_TiTo_Subj17-24,3,24,dx,BlockProc1,350,z,100,z,1,,LONG,826
Exp1_SingleTask_TiTo_Subj17-24,3,24,dx,BlockProc1,150,z,0,z,1,,SHORT,515
Exp1_SingleTask_TiTo_Subj17-24,3,24,dx,BlockProc1,350,z,0,z,1,,LONG,601
Exp1_SingleTask_TiTo_Subj17-24,3,24,dx,BlockProc1,150,z,100,z,1,,SHORT,620
Exp1_SingleTask_TiTo_Subj17-24,3,24,dx,BlockProc1,100,m,0,m,1,,SHORT,604
Exp1_SingleTask_TiTo_Subj17-24,3,24,dx,BlockProc1,150,m,0,m,1,,SHORT,559
Exp1_SingleTask_TiTo_Subj17-24,3,24,dx,BlockProc1,300,m,0,m,1,,LONG,622
Exp1_SingleTask_TiTo_Subj17-24,3,24,dx,BlockProc1,350,z,100,z,1,,LONG,571
Exp1_SingleTask_TiTo_Subj17-24,3,24,dx,BlockProc1,100,m,0,m,1,,SHORT,704
Exp1_SingleTask_TiTo_Subj17-24,3,24,dx,BlockProc1,350,z,0,z,1,,LONG,717
Exp1_SingleTask_TiTo_Subj17-24,3,24,dx,BlockProc1,350,m,0,m,1,,LONG,647
Exp1_SingleTask_TiTo_Subj17-24,3,24,dx,BlockProc1,100,m,0,m,1,,SHORT,457
Exp1_SingleTask_TiTo_Subj17-24,3,24,dx,BlockProc1,300,z,100,z,1,,LONG,544
Exp1_SingleTask_TiTo_Subj17-24,3,24,dx,BlockProc1,150,z,0,z,1,,SHORT,494
Exp1_SingleTask_TiTo_Subj17-24,3,24,dx,BlockProc1,100,z,0,z,1,,SHORT,591
Exp1_SingleTask_TiTo_Subj17-24,3,24,dx,BlockProc1,350,z,100,z,1,,LONG,650
Exp1_SingleTask_TiTo_Subj17-24,3,24,dx,BlockProc1,150,z,0,z,1,,SHORT,580
Exp1_SingleTask_TiTo_Subj17-24,3,24,dx,BlockProc1,100,m,100,m,1,,SHORT,562
Exp1_SingleTask_TiTo_Subj17-24,3,24,dx,BlockProc1,150,m,0,m,1,,SHORT,609
Exp1_SingleTask_TiTo_Subj17-24,3,24,dx,BlockProc1,300,z,100,z,1,,LONG,559
Exp1_SingleTask_TiTo_Subj17-24,3,24,dx,BlockProc1,150,z,100,z,1,,SHORT,470
Exp1_SingleTask_TiTo_Subj17-24,3,24,dx,BlockProc1,300,z,100,z,1,,LONG,535
Exp1_SingleTask_TiTo_Subj17-24,3,24,dx,BlockProc1,150,z,100,z,1,,SHORT,505
Exp1_SingleTask_TiTo_Subj17-24,3,24,dx,BlockProc1,300,z,0,z,1,,LONG,561
Exp1_SingleTask_TiTo_Subj17-24,3,24,dx,BlockProc1,300,z,0,z,1,,LONG,741
Exp1_SingleTask_TiTo_Subj17-24,3,24,dx,BlockProc1,300,z,0,z,1,,LONG,477
Exp1_SingleTask_TiTo_Subj17-24,3,24,dx,BlockProc1,350,m,100,m,1,,LONG,477
Exp1_SingleTask_TiTo_Subj17-24,3,24,dx,BlockProc1,100,z,100,z,1,,SHORT,517
Exp1_SingleTask_TiTo_Subj17-24,3,24,dx,BlockProc1,100,m,0,m,1,,SHORT,583
Exp1_SingleTask_TiTo_Subj17-24,3,24,dx,BlockProc1,350,m,100,m,1,,LONG,544
Exp1_SingleTask_TiTo_Subj17-24,3,24,dx,BlockProc1,100,z,0,z,1,,SHORT,759
Exp1_SingleTask_TiTo_Subj17-24,3,24,dx,BlockProc1,150,m,0,m,1,,SHORT,521
Exp1_SingleTask_TiTo_Subj17-24,3,24,dx,BlockProc1,350,m,0,m,1,,LONG,532
Exp1_SingleTask_TiTo_Subj17-24,3,24,dx,BlockProc1,350,z,0,z,1,,LONG,578
Exp1_SingleTask_TiTo_Subj17-24,3,24,dx,BlockProc1,300,m,0,m,1,,LONG,552
Exp1_SingleTask_TiTo_Subj17-24,3,24,dx,BlockProc1,350,m,0,m,1,,LONG,497
Exp1_SingleTask_TiTo_Subj17-24,3,24,dx,BlockProc1,150,m,0,m,1,,SHORT,675
Exp1_SingleTask_TiTo_Subj17-24,3,24,dx,BlockProc1,300,m,0,m,1,,LONG,483
Exp1_SingleTask_TiTo_Subj17-24,3,24,dx,BlockProc1,100,z,100,z,1,,SHORT,675
Exp1_SingleTask_TiTo_Subj17-24,3,24,dx,BlockProc1,300,m,100,m,1,,LONG,529
Exp1_SingleTask_TiTo_Subj17-24,3,24,dx,BlockProc1,100,z,0,z,1,,SHORT,625
Exp1_SingleTask_TiTo_Subj17-24,3,24,dx,BlockProc1,150,z,0,z,1,,SHORT,489
Exp1_SingleTask_TiTo_Subj17-24,3,24,dx,BlockProc1,150,z,100,z,1,,SHORT,573
Exp1_SingleTask_TiTo_Subj17-24,3,24,dx,BlockProc1,350,m,100,m,1,,LONG,567
Exp1_SingleTask_TiTo_Subj17-24,3,24,dx,BlockProc1,300,m,100,m,1,,LONG,533
Exp1_SingleTask_TiTo_Subj17-24,3,24,dx,BlockProc1,300,m,0,m,1,,LONG,504
Exp1_SingleTask_TiTo_Subj17-24,3,24,dx,BlockProc1,350,z,100,z,1,,LONG,583
Exp1_SingleTask_TiTo_Subj17-24,3,24,dx,BlockProc1,100,m,100,m,1,,SHORT,632
Exp1_SingleTask_TiTo_Subj17-24,3,24,dx,BlockProc1,100,m,0,m,1,,SHORT,528
Exp1_SingleTask_TiTo_Subj17-24,3,24,dx,BlockProc1,350,z,0,z,1,,LONG,530
Exp1_SingleTask_TiTo_Subj17-24,3,24,dx,BlockProc1,350,z,100,z,1,,LONG,594
Exp1_SingleTask_TiTo_Subj17-24,3,24,dx,BlockProc1,100,m,100,m,1,,SHORT,719
Exp1_SingleTask_TiTo_Subj17-24,3,24,dx,BlockProc1,150,m,100,m,1,,SHORT,612
Exp1_SingleTask_TiTo_Subj17-24,3,24,dx,BlockProc1,150,m,100,m,1,,SHORT,615
Exp1_SingleTask_TiTo_Subj17-24,3,24,dx,BlockProc1,100,z,100,z,1,,SHORT,705
Exp1_SingleTask_TiTo_Subj17-24,3,24,dx,BlockProc1,300,m,100,m,1,,LONG,509
Exp1_SingleTask_TiTo_Subj17-24,3,24,dx,BlockProc1,150,m,100,m,1,,SHORT,498
Exp1_SingleTask_TiTo_Subj17-24,3,24,dx,BlockProc1,100,z,0,z,1,,SHORT,493
Exp1_SingleTask_TiTo_Subj17-24,3,24,dx,BlockProc1,150,z,100,z,1,,SHORT,542
Exp1_SingleTask_TiTo_Subj17-24,3,24,dx,BlockProc1,100,z,0,z,1,,SHORT,567
Exp1_SingleTask_TiTo_Subj17-24,3,24,dx,BlockProc1,300,m,100,m,1,,LONG,511
Exp1_SingleTask_TiTo_Subj17-24,3,24,dx,BlockProc1,300,m,100,m,1,,LONG,579
Exp1_SingleTask_TiTo_Subj17-24,3,24,dx,BlockProc1,350,z,0,z,1,,LONG,530
Exp1_SingleTask_TiTo_Subj17-24,3,24,dx,BlockProc1,350,z,100,z,1,,LONG,563
Exp1_SingleTask_TiTo_Subj17-24,3,24,dx,BlockProc1,300,m,100,m,1,,LONG,637
Exp1_SingleTask_TiTo_Subj17-24,3,24,dx,BlockProc1,100,m,0,m,1,,SHORT,541
Exp1_SingleTask_TiTo_Subj17-24,3,24,dx,BlockProc1,350,m,0,m,1,,LONG,451
Exp1_SingleTask_TiTo_Subj17-24,3,24,dx,BlockProc1,350,z,100,z,1,,LONG,523
Exp1_SingleTask_TiTo_Subj17-24,3,24,dx,BlockProc1,300,z,100,z,1,,LONG,499
Exp1_SingleTask_TiTo_Subj17-24,3,24,dx,BlockProc1,350,z,0,z,1,,LONG,439
Exp1_SingleTask_TiTo_Subj17-24,3,24,dx,BlockProc1,150,z,0,z,1,,SHORT,460
Exp1_SingleTask_TiTo_Subj17-24,3,24,dx,BlockProc1,350,m,0,m,1,,LONG,675
Exp1_SingleTask_TiTo_Subj17-24,3,24,dx,BlockProc1,300,m,0,m,1,,LONG,697
Exp1_SingleTask_TiTo_Subj17-24,3,24,dx,BlockProc1,100,m,0,m,1,,SHORT,564
Exp1_SingleTask_TiTo_Subj17-24,3,24,dx,BlockProc1,150,m,100,m,1,,SHORT,523
Exp1_SingleTask_TiTo_Subj17-24,3,24,dx,BlockProc1,100,z,100,z,1,,SHORT,453
Exp1_SingleTask_TiTo_Subj17-24,3,24,dx,BlockProc1,300,z,0,z,1,,LONG,456
Exp1_SingleTask_TiTo_Subj17-24,3,24,dx,BlockProc1,150,m,100,m,1,,SHORT,721
Exp1_SingleTask_TiTo_Subj17-24,3,24,dx,BlockProc1,100,m,100,m,1,,SHORT,526
Exp1_SingleTask_TiTo_Subj17-24,3,24,dx,BlockProc1,150,z,100,z,1,,SHORT,574
Exp1_SingleTask_TiTo_Subj17-24,3,24,dx,BlockProc1,350,m,100,m,1,,LONG,412
Exp1_SingleTask_TiTo_Subj17-24,3,24,dx,BlockProc1,100,m,100,m,1,,SHORT,553
Exp1_SingleTask_TiTo_Subj17-24,3,24,dx,BlockProc1,300,z,0,z,1,,LONG,600
Exp1_SingleTask_TiTo_Subj17-24,3,24,dx,BlockProc1,150,m,0,m,1,,SHORT,534
Exp1_SingleTask_TiTo_Subj17-24,3,24,dx,BlockProc1,100,z,100,z,1,,SHORT,606
Exp1_SingleTask_TiTo_Subj17-24,3,24,dx,BlockProc1,100,m,100,m,1,,SHORT,472
Exp1_SingleTask_TiTo_Subj17-24,3,24,dx,BlockProc1,150,z,0,z,1,,SHORT,682
Exp1_SingleTask_TiTo_Subj17-24,3,24,dx,BlockProc1,150,m,0,m,1,,SHORT,627
Exp1_SingleTask_TiTo_Subj17-24,3,24,dx,BlockProc1,300,z,100,z,1,,LONG,523
Exp1_SingleTask_TiTo_Subj17-24,3,24,dx,BlockProc1,100,z,100,z,1,,SHORT,547
Exp1_SingleTask_TiTo_Subj17-24,3,24,dx,BlockProc1,350,z,0,z,1,,LONG,971
Exp1_SingleTask_TiTo_Subj17-24,3,24,dx,BlockProc1,150,z,100,z,1,,SHORT,631
Exp1_SingleTask_TiTo_Subj17-24,3,24,dx,BlockProc1,150,m,0,m,1,,SHORT,609
Exp1_SingleTask_TiTo_Subj17-24,3,24,dx,BlockProc1,350,m,100,m,1,,LONG,526
Exp1_SingleTask_TiTo_Subj17-24,3,24,dx,BlockProc1,350,m,0,m,1,,LONG,730
Exp1_SingleTask_TiTo_Subj17-24,3,24,dx,BlockProc1,350,m,100,m,1,,LONG,645
Exp1_SingleTask_TiTo_Subj17-24,3,24,dx,BlockProc1,150,m,100,m,1,,SHORT,639
Exp1_SingleTask_TiTo_Subj17-24,3,24,dx,BlockProc1,100,m,0,m,1,,SHORT,678
Exp1_SingleTask_TiTo_Subj17-24,3,24,dx,BlockProc1,150,z,0,z,1,,SHORT,637
Exp1_SingleTask_TiTo_Subj17-24,3,24,dx,BlockProc1,100,z,0,z,1,,SHORT,472
Exp1_SingleTask_TiTo_Subj17-24,3,24,dx,BlockProc1,350,z,100,z,1,,LONG,534
Exp1_SingleTask_TiTo_Subj17-24,3,24,dx,BlockProc1,300,m,0,m,1,,LONG,543
Exp1_SingleTask_TiTo_Subj17-24,3,24,dx,BlockProc1,300,z,0,z,1,,LONG,490
Exp1_SingleTask_TiTo_Subj17-24,3,24,dx,BlockProc1,300,m,0,m,1,,LONG,546
Exp1_SingleTask_TiTo_Subj17-24,3,24,dx,BlockProc1,300,z,100,z,1,,LONG,578
Exp1_SingleTask_TiTo_Subj17-24,3,24,dx,BlockProc2,150,m,100,m,1,,SHORT,581
Exp1_SingleTask_TiTo_Subj17-24,3,24,dx,BlockProc2,300,m,0,m,1,,LONG,436
Exp1_SingleTask_TiTo_Subj17-24,3,24,dx,BlockProc2,100,m,100,m,1,,SHORT,458
Exp1_SingleTask_TiTo_Subj17-24,3,24,dx,BlockProc2,300,m,0,m,1,,LONG,486
Exp1_SingleTask_TiTo_Subj17-24,3,24,dx,BlockProc2,350,z,0,z,1,,LONG,493
Exp1_SingleTask_TiTo_Subj17-24,3,24,dx,BlockProc2,300,z,100,z,1,,LONG,484
Exp1_SingleTask_TiTo_Subj17-24,3,24,dx,BlockProc2,150,m,0,m,1,,SHORT,490
Exp1_SingleTask_TiTo_Subj17-24,3,24,dx,BlockProc2,350,z,100,z,1,,LONG,417
Exp1_SingleTask_TiTo_Subj17-24,3,24,dx,BlockProc2,350,m,100,m,1,,LONG,457
Exp1_SingleTask_TiTo_Subj17-24,3,24,dx,BlockProc2,100,m,100,m,1,,SHORT,455
Exp1_SingleTask_TiTo_Subj17-24,3,24,dx,BlockProc2,300,z,100,z,1,,LONG,471
Exp1_SingleTask_TiTo_Subj17-24,3,24,dx,BlockProc2,100,m,100,m,1,,SHORT,722
Exp1_SingleTask_TiTo_Subj17-24,3,24,dx,BlockProc2,150,z,0,z,1,,SHORT,526
Exp1_SingleTask_TiTo_Subj17-24,3,24,dx,BlockProc2,300,m,0,m,1,,LONG,415
Exp1_SingleTask_TiTo_Subj17-24,3,24,dx,BlockProc2,100,z,100,z,1,,SHORT,627
Exp1_SingleTask_TiTo_Subj17-24,3,24,dx,BlockProc2,100,z,0,z,1,,SHORT,512
Exp1_SingleTask_TiTo_Subj17-24,3,24,dx,BlockProc2,100,m,0,m,1,,SHORT,453
Exp1_SingleTask_TiTo_Subj17-24,3,24,dx,BlockProc2,350,m,100,m,1,,LONG,539
Exp1_SingleTask_TiTo_Subj17-24,3,24,dx,BlockProc2,300,m,100,m,1,,LONG,568
Exp1_SingleTask_TiTo_Subj17-24,3,24,dx,BlockProc2,150,z,0,z,1,,SHORT,508
Exp1_SingleTask_TiTo_Subj17-24,3,24,dx,BlockProc2,100,m,0,m,1,,SHORT,486
Exp1_SingleTask_TiTo_Subj17-24,3,24,dx,BlockProc2,100,z,0,z,1,,SHORT,535
Exp1_SingleTask_TiTo_Subj17-24,3,24,dx,BlockProc2,350,z,0,z,1,,LONG,662
Exp1_SingleTask_TiTo_Subj17-24,3,24,dx,BlockProc2,100,z,100,z,1,,SHORT,579
Exp1_SingleTask_TiTo_Subj17-24,3,24,dx,BlockProc2,300,z,0,z,1,,LONG,532
Exp1_SingleTask_TiTo_Subj17-24,3,24,dx,BlockProc2,350,m,0,m,1,,LONG,471
Exp1_SingleTask_TiTo_Subj17-24,3,24,dx,BlockProc2,150,m,0,m,1,,SHORT,481
Exp1_SingleTask_TiTo_Subj17-24,3,24,dx,BlockProc2,100,m,0,m,1,,SHORT,641
Exp1_SingleTask_TiTo_Subj17-24,3,24,dx,BlockProc2,150,z,100,z,1,,SHORT,644
Exp1_SingleTask_TiTo_Subj17-24,3,24,dx,BlockProc2,350,z,0,z,1,,LONG,597
Exp1_SingleTask_TiTo_Subj17-24,3,24,dx,BlockProc2,350,m,100,m,1,,LONG,611
Exp1_SingleTask_TiTo_Subj17-24,3,24,dx,BlockProc2,350,z,100,z,1,,LONG,471
Exp1_SingleTask_TiTo_Subj17-24,3,24,dx,BlockProc2,300,z,0,z,1,,LONG,420
Exp1_SingleTask_TiTo_Subj17-24,3,24,dx,BlockProc2,100,z,0,z,1,,SHORT,459
Exp1_SingleTask_TiTo_Subj17-24,3,24,dx,BlockProc2,300,z,100,z,1,,LONG,393
Exp1_SingleTask_TiTo_Subj17-24,3,24,dx,BlockProc2,150,z,100,z,1,,SHORT,510
Exp1_SingleTask_TiTo_Subj17-24,3,24,dx,BlockProc2,150,m,0,m,1,,SHORT,454
Exp1_SingleTask_TiTo_Subj17-24,3,24,dx,BlockProc2,100,z,100,z,1,,SHORT,520
Exp1_SingleTask_TiTo_Subj17-24,3,24,dx,BlockProc2,350,m,0,m,1,,LONG,699
Exp1_SingleTask_TiTo_Subj17-24,3,24,dx,BlockProc2,350,m,0,m,1,,LONG,738
Exp1_SingleTask_TiTo_Subj17-24,3,24,dx,BlockProc2,150,m,100,m,1,,SHORT,602
Exp1_SingleTask_TiTo_Subj17-24,3,24,dx,BlockProc2,300,z,0,z,1,,LONG,513
Exp1_SingleTask_TiTo_Subj17-24,3,24,dx,BlockProc2,150,z,100,z,1,,SHORT,838
