TASK_NUMBER,ExperimentName,Subject,CueDur[Trial],RespTARGET.RT[Trial],CORRECT_NUMBER,SOA[Trial],DURATION,CORRECT_RESP
DUAL_TASK,Exp1_DualTask_TiTo_Subj1-8,22,350,4,z,0,LONG,1
SINGLE_TASK,Exp1_SingleTask_TiTo_Subj17-24,3,150,13,z,100,SHORT,1
DUAL_TASK,Exp1_DualTask_TiTo_Subj1-8,22,350,21,z,0,LONG,1
DUAL_TASK,Exp1_DualTask_TiTo_Subj1-8,22,350,43,z,0,LONG,1
SINGLE_TASK,Exp1_SingleTask_TiTo_Subj17-24,3,350,47,m,0,LONG,1
DUAL_TASK,Exp1_DualTask_TiTo_Subj1-8,22,300,59,m,0,LONG,1
SINGLE_TASK,Exp1_SingleTask_TiTo_Subj17-24,3,300,60,z,0,LONG,1
SINGLE_TASK,Exp1_SingleTask_TiTo_Subj17-24,3,300,63,z,0,LONG,1
SINGLE_TASK,Exp1_SingleTask_TiTo_Subj17-24,3,350,64,m,0,LONG,1
SINGLE_TASK,Exp1_SingleTask_TiTo_Subj17-24,5,300,71,z,100,LONG,1
DUAL_TASK,Exp1_DualTask_TiTo_Subj1-8,22,350,76,z,0,LONG,1
DUAL_TASK,Exp1_DualTask_ToTi_Subj9-16,28,300,92,m,0,LONG,1
SINGLE_TASK,Exp1_SingleTask_ToTi_Subj24-32,29,350,108,z,100,LONG,1
DUAL_TASK,Exp1_DualTask_ToTi_Subj9-16,28,350,118,m,100,LONG,1
SINGLE_TASK,Exp1_SingleTask_ToTi_Subj24-32,29,100,120,m,0,SHORT,1
SINGLE_TASK,Exp1_SingleTask_TiTo_Subj17-24,3,300,120,z,100,LONG,1
DUAL_TASK,Exp1_DualTask_TiTo_Subj1-8,22,300,121,m,0,LONG,1
DUAL_TASK,Exp1_DualTask_TiTo_Subj1-8,22,350,122,m,100,LONG,1
DUAL_TASK,Exp1_DualTask_TiTo_Subj1-8,22,350,125,m,100,LONG,1
DUAL_TASK,Exp1_DualTask_ToTi_Subj9-16,18,100,129,z,0,SHORT,1
DUAL_TASK,Exp1_DualTask_TiTo_Subj1-8,22,150,129,m,0,SHORT,1
SINGLE_TASK,Exp1_SingleTask_TiTo_Subj17-24,3,300,130,m,0,LONG,1
SINGLE_TASK,Exp1_SingleTask_TiTo_Subj17-24,3,300,136,m,0,LONG,1
DUAL_TASK,Exp1_DualTask_TiTo_Subj1-8,22,300,136,z,0,LONG,1
SINGLE_TASK,Exp1_SingleTask_ToTi_Subj24-32,25,350,140,z,0,LONG,1
SINGLE_TASK,Exp1_SingleTask_TiTo_Subj17-24,3,100,145,m,0,SHORT,1
SINGLE_TASK,Exp1_SingleTask_TiTo_Subj17-24,3,300,150,z,0,LONG,1
DUAL_TASK,Exp1_DualTask_TiTo_Subj1-8,13,300,151,z,0,LONG,1
SINGLE_TASK,Exp1_SingleTask_TiTo_Subj17-24,3,350,151,z,100,LONG,1
SINGLE_TASK,Exp1_SingleTask_TiTo_Subj17-24,3,350,151,m,100,LONG,1
DUAL_TASK,Exp1_DualTask_TiTo_Subj1-8,22,150,152,z,0,SHORT,1
DUAL_TASK,Exp1_DualTask_TiTo_Subj1-8,22,150,153,m,0,SHORT,1
DUAL_TASK,Exp1_DualTask_ToTi_Subj9-16,28,350,154,m,0,LONG,1
DUAL_TASK,Exp1_DualTask_ToTi_Subj9-16,28,150,156,z,0,SHORT,1
SINGLE_TASK,Exp1_SingleTask_TiTo_Subj17-24,1,100,158,z,0,SHORT,1
SINGLE_TASK,Exp1_SingleTask_TiTo_Subj17-24,1,100,159,z,0,SHORT,1
SINGLE_TASK,Exp1_SingleTask_TiTo_Subj17-24,3,300,164,z,100,LONG,1
DUAL_TASK,Exp1_DualTask_TiTo_Subj1-8,22,150,165,m,0,SHORT,1
DUAL_TASK,Exp1_DualTask_ToTi_Subj9-16,28,300,169,m,100,LONG,1
SINGLE_TASK,Exp1_SingleTask_TiTo_Subj17-24,3,350,171,m,100,LONG,1
SINGLE_TASK,Exp1_SingleTask_TiTo_Subj17-24,3,350,172,m,0,LONG,1
DUAL_TASK,Exp1_DualTask_TiTo_Subj1-8,22,350,173,z,100,LONG,1
SINGLE_TASK,Exp1_SingleTask_TiTo_Subj17-24,3,350,175,z,0,LONG,1
SINGLE_TASK,Exp1_SingleTask_TiTo_Subj17-24,3,300,177,z,100,LONG,1
SINGLE_TASK,Exp1_SingleTask_TiTo_Subj17-24,3,350,179,z,0,LONG,1
SINGLE_TASK,Exp1_SingleTask_TiTo_Subj17-24,3,150,180,m,0,SHORT,1
SINGLE_TASK,Exp1_SingleTask_TiTo_Subj17-24,3,350,181,z,0,LONG,1
DUAL_TASK,Exp1_DualTask_TiTo_Subj1-8,22,350,183,z,100,LONG,1
SINGLE_TASK,Exp1_SingleTask_TiTo_Subj17-24,3,350,191,z,100,LONG,1
SINGLE_TASK,Exp1_SingleTask_TiTo_Subj17-24,3,350,192,z,0,LONG,1
SINGLE_TASK,Exp1_SingleTask_TiTo_Subj17-24,3,300,192,z,100,LONG,1
SINGLE_TASK,Exp1_SingleTask_TiTo_Subj17-24,3,300,192,m,100,LONG,1
SINGLE_TASK,Exp1_SingleTask_TiTo_Subj17-24,3,150,194,z,0,SHORT,1
DUAL_TASK,Exp1_DualTask_TiTo_Subj1-8,22,100,194,z,0,SHORT,1
DUAL_TASK,Exp1_DualTask_ToTi_Subj9-16,28,300,194,m,0,LONG,1
DUAL_TASK,Exp1_DualTask_ToTi_Subj9-16,18,350,201,m,100,LONG,1
SINGLE_TASK,Exp1_SingleTask_TiTo_Subj17-24,3,350,203,m,0,LONG,1
SINGLE_TASK,Exp1_SingleTask_TiTo_Subj17-24,3,100,208,m,0,SHORT,1
DUAL_TASK,Exp1_DualTask_ToTi_Subj9-16,28,150,208,z,0,SHORT,1
DUAL_TASK,Exp1_DualTask_TiTo_Subj1-8,22,350,209,z,100,LONG,1
DUAL_TASK,Exp1_DualTask_TiTo_Subj1-8,22,300,210,z,100,LONG,1
SINGLE_TASK,Exp1_SingleTask_ToTi_Subj24-32,29,150,212,z,100,SHORT,1
DUAL_TASK,Exp1_DualTask_TiTo_Subj1-8,22,300,214,m,0,LONG,1
SINGLE_TASK,Exp1_SingleTask_TiTo_Subj17-24,3,350,215,m,0,LONG,1
DUAL_TASK,Exp1_DualTask_ToTi_Subj9-16,28,300,215,z,0,LONG,1
DUAL_TASK,Exp1_DualTask_TiTo_Subj1-8,22,300,217,m,0,LONG,1
DUAL_TASK,Exp1_DualTask_ToTi_Subj9-16,28,300,217,z,0,LONG,1
SINGLE_TASK,Exp1_SingleTask_TiTo_Subj17-24,3,150,218,m,0,SHORT,1
DUAL_TASK,Exp1_DualTask_ToTi_Subj9-16,28,350,218,m,0,LONG,1
DUAL_TASK,Exp1_DualTask_ToTi_Subj9-16,28,100,218,m,0,SHORT,1
DUAL_TASK,Exp1_DualTask_ToTi_Subj9-16,28,300,218,z,100,LONG,1
SINGLE_TASK,Exp1_SingleTask_TiTo_Subj17-24,3,350,220,z,0,LONG,1
SINGLE_TASK,Exp1_SingleTask_ToTi_Subj24-32,31,350,224,m,0,LONG,1
SINGLE_TASK,Exp1_SingleTask_TiTo_Subj17-24,1,350,225,z,100,LONG,1
SINGLE_TASK,Exp1_SingleTask_TiTo_Subj17-24,3,300,225,m,100,LONG,1
DUAL_TASK,Exp1_DualTask_ToTi_Subj9-16,28,150,227,m,0,SHORT,1
DUAL_TASK,Exp1_DualTask_ToTi_Subj9-16,28,300,228,z,0,LONG,1
SINGLE_TASK,Exp1_SingleTask_TiTo_Subj17-24,1,300,228,z,100,LONG,1
SINGLE_TASK,Exp1_SingleTask_TiTo_Subj17-24,3,350,230,m,100,LONG,1
DUAL_TASK,Exp1_DualTask_TiTo_Subj1-8,22,350,230,m,100,LONG,1
DUAL_TASK,Exp1_DualTask_ToTi_Subj9-16,28,350,231,m,0,LONG,1
DUAL_TASK,Exp1_DualTask_ToTi_Subj9-16,28,300,231,z,0,LONG,1
DUAL_TASK,Exp1_DualTask_TiTo_Subj1-8,22,350,232,z,0,LONG,1
DUAL_TASK,Exp1_DualTask_ToTi_Subj9-16,28,350,232,m,0,LONG,1
SINGLE_TASK,Exp1_SingleTask_TiTo_Subj17-24,3,300,233,z,0,LONG,1
DUAL_TASK,Exp1_DualTask_ToTi_Subj9-16,28,300,234,z,0,LONG,1
SINGLE_TASK,Exp1_SingleTask_TiTo_Subj17-24,3,100,235,z,0,SHORT,1
DUAL_TASK,Exp1_DualTask_TiTo_Subj1-8,22,100,235,z,0,SHORT,1
SINGLE_TASK,Exp1_SingleTask_TiTo_Subj17-24,3,300,236,z,0,LONG,1
SINGLE_TASK,Exp1_SingleTask_ToTi_Subj24-32,25,150,238,z,100,SHORT,1
SINGLE_TASK,Exp1_SingleTask_TiTo_Subj17-24,3,150,241,m,0,SHORT,1
SINGLE_TASK,Exp1_SingleTask_TiTo_Subj17-24,3,350,242,m,0,LONG,1
DUAL_TASK,Exp1_DualTask_ToTi_Subj9-16,28,350,245,z,100,LONG,1
SINGLE_TASK,Exp1_SingleTask_TiTo_Subj17-24,3,150,247,m,0,SHORT,1
SINGLE_TASK,Exp1_SingleTask_TiTo_Subj17-24,3,150,247,z,0,SHORT,1
SINGLE_TASK,Exp1_SingleTask_TiTo_Subj17-24,3,150,247,m,0,SHORT,1
DUAL_TASK,Exp1_DualTask_TiTo_Subj1-8,22,350,247,m,0,LONG,1
SINGLE_TASK,Exp1_SingleTask_ToTi_Subj24-32,21,300,248,z,0,LONG,1
DUAL_TASK,Exp1_DualTask_TiTo_Subj1-8,22,150,248,m,0,SHORT,1
DUAL_TASK,Exp1_DualTask_ToTi_Subj9-16,28,100,248,m,0,SHORT,1
SINGLE_TASK,Exp1_SingleTask_TiTo_Subj17-24,1,150,249,m,0,SHORT,1
SINGLE_TASK,Exp1_SingleTask_ToTi_Subj24-32,21,300,249,m,0,LONG,1
DUAL_TASK,Exp1_DualTask_ToTi_Subj9-16,28,350,249,z,0,LONG,1
DUAL_TASK,Exp1_DualTask_TiTo_Subj1-8,22,300,251,z,0,LONG,1
DUAL_TASK,Exp1_DualTask_ToTi_Subj9-16,28,350,251,z,0,LONG,1
DUAL_TASK,Exp1_DualTask_TiTo_Subj1-8,22,100,251,z,100,SHORT,1
DUAL_TASK,Exp1_DualTask_TiTo_Subj1-8,22,300,253,m,0,LONG,1
SINGLE_TASK,Exp1_SingleTask_TiTo_Subj17-24,3,150,253,m,100,SHORT,1
DUAL_TASK,Exp1_DualTask_TiTo_Subj1-8,22,350,253,z,100,LONG,1
SINGLE_TASK,Exp1_SingleTask_TiTo_Subj17-24,3,300,254,z,100,LONG,1
SINGLE_TASK,Exp1_SingleTask_TiTo_Subj17-24,3,300,254,m,100,LONG,1
DUAL_TASK,Exp1_DualTask_ToTi_Subj9-16,28,350,254,m,100,LONG,1
DUAL_TASK,Exp1_DualTask_ToTi_Subj9-16,28,350,254,z,100,LONG,1
SINGLE_TASK,Exp1_SingleTask_TiTo_Subj17-24,1,350,255,z,0,LONG,1
SINGLE_TASK,Exp1_SingleTask_TiTo_Subj17-24,3,150,255,m,0,SHORT,1
SINGLE_TASK,Exp1_SingleTask_TiTo_Subj17-24,1,300,255,m,100,LONG,1
SINGLE_TASK,Exp1_SingleTask_ToTi_Subj24-32,29,300,257,z,0,LONG,1
DUAL_TASK,Exp1_DualTask_ToTi_Subj9-16,28,350,257,m,100,LONG,1
SINGLE_TASK,Exp1_SingleTask_TiTo_Subj17-24,3,300,258,z,0,LONG,1
SINGLE_TASK,Exp1_SingleTask_TiTo_Subj17-24,5,150,258,m,0,SHORT,1
SINGLE_TASK,Exp1_SingleTask_TiTo_Subj17-24,1,100,259,z,0,SHORT,1
SINGLE_TASK,Exp1_SingleTask_TiTo_Subj17-24,3,100,259,z,0,SHORT,1
DUAL_TASK,Exp1_DualTask_TiTo_Subj1-8,22,150,259,z,0,SHORT,1
SINGLE_TASK,Exp1_SingleTask_TiTo_Subj17-24,3,300,259,z,100,LONG,1
SINGLE_TASK,Exp1_SingleTask_ToTi_Subj24-32,21,350,261,m,0,LONG,1
DUAL_TASK,Exp1_DualTask_ToTi_Subj9-16,28,350,261,z,0,LONG,1
SINGLE_TASK,Exp1_SingleTask_ToTi_Subj24-32,31,300,262,m,0,LONG,1
DUAL_TASK,Exp1_DualTask_ToTi_Subj9-16,18,300,262,m,100,LONG,1
SINGLE_TASK,Exp1_SingleTask_ToTi_Subj24-32,21,350,263,m,0,LONG,1
SINGLE_TASK,Exp1_SingleTask_ToTi_Subj24-32,31,150,263,z,0,SHORT,1
SINGLE_TASK,Exp1_SingleTask_TiTo_Subj17-24,2,300,265,m,0,LONG,1
SINGLE_TASK,Exp1_SingleTask_TiTo_Subj17-24,3,100,266,z,0,SHORT,1
SINGLE_TASK,Exp1_SingleTask_ToTi_Subj24-32,21,350,266,z,0,LONG,1
SINGLE_TASK,Exp1_SingleTask_ToTi_Subj24-32,21,350,267,z,0,LONG,1
DUAL_TASK,Exp1_DualTask_ToTi_Subj9-16,28,350,267,z,100,LONG,1
SINGLE_TASK,Exp1_SingleTask_TiTo_Subj17-24,3,300,268,z,100,LONG,1
SINGLE_TASK,Exp1_SingleTask_TiTo_Subj17-24,3,350,268,z,100,LONG,1
DUAL_TASK,Exp1_DualTask_TiTo_Subj1-8,22,350,270,m,0,LONG,1
DUAL_TASK,Exp1_DualTask_TiTo_Subj1-8,13,300,271,m,0,LONG,1
SINGLE_TASK,Exp1_SingleTask_ToTi_Subj24-32,21,300,272,m,0,LONG,1
SINGLE_TASK,Exp1_SingleTask_TiTo_Subj17-24,5,150,272,z,100,SHORT,1
SINGLE_TASK,Exp1_SingleTask_TiTo_Subj17-24,3,100,273,m,0,SHORT,1
DUAL_TASK,Exp1_DualTask_TiTo_Subj1-8,22,150,273,z,0,SHORT,1
DUAL_TASK,Exp1_DualTask_ToTi_Subj9-16,28,100,273,m,0,SHORT,1
SINGLE_TASK,Exp1_SingleTask_ToTi_Subj24-32,21,300,274,z,0,LONG,1
DUAL_TASK,Exp1_DualTask_ToTi_Subj9-16,28,100,274,z,0,SHORT,1
SINGLE_TASK,Exp1_SingleTask_TiTo_Subj17-24,3,350,274,z,100,LONG,1
DUAL_TASK,Exp1_DualTask_ToTi_Subj9-16,18,350,274,z,100,LONG,1
DUAL_TASK,Exp1_DualTask_ToTi_Subj9-16,28,100,275,z,0,SHORT,1
SINGLE_TASK,Exp1_SingleTask_TiTo_Subj17-24,1,150,276,z,0,SHORT,1
SINGLE_TASK,Exp1_SingleTask_TiTo_Subj17-24,3,300,276,m,0,LONG,1
SINGLE_TASK,Exp1_SingleTask_ToTi_Subj24-32,21,300,276,m,0,LONG,1
SINGLE_TASK,Exp1_SingleTask_ToTi_Subj24-32,21,300,277,m,0,LONG,1
SINGLE_TASK,Exp1_SingleTask_ToTi_Subj24-32,21,150,277,m,0,SHORT,1
DUAL_TASK,Exp1_DualTask_ToTi_Subj9-16,28,300,277,m,100,LONG,1
SINGLE_TASK,Exp1_SingleTask_TiTo_Subj17-24,3,100,278,m,0,SHORT,1
SINGLE_TASK,Exp1_SingleTask_TiTo_Subj17-24,3,100,278,z,100,SHORT,1
SINGLE_TASK,Exp1_SingleTask_TiTo_Subj17-24,3,150,278,z,100,SHORT,1
SINGLE_TASK,Exp1_SingleTask_ToTi_Subj24-32,21,300,280,m,0,LONG,1
SINGLE_TASK,Exp1_SingleTask_ToTi_Subj24-32,21,300,280,z,0,LONG,1
DUAL_TASK,Exp1_DualTask_ToTi_Subj9-16,18,350,280,m,100,LONG,1
SINGLE_TASK,Exp1_SingleTask_TiTo_Subj17-24,1,300,281,m,100,LONG,1
DUAL_TASK,Exp1_DualTask_ToTi_Subj9-16,28,300,281,z,100,LONG,1
SINGLE_TASK,Exp1_SingleTask_ToTi_Subj24-32,21,300,282,m,0,LONG,1
SINGLE_TASK,Exp1_SingleTask_TiTo_Subj17-24,1,100,284,m,0,SHORT,1
SINGLE_TASK,Exp1_SingleTask_ToTi_Subj24-32,21,350,284,z,0,LONG,1
SINGLE_TASK,Exp1_SingleTask_ToTi_Subj24-32,21,300,284,m,0,LONG,1
DUAL_TASK,Exp1_DualTask_ToTi_Subj9-16,28,350,284,m,100,LONG,1
DUAL_TASK,Exp1_DualTask_ToTi_Subj9-16,28,100,285,m,0,SHORT,1
SINGLE_TASK,Exp1_SingleTask_TiTo_Subj17-24,3,350,285,z,100,LONG,1
DUAL_TASK,Exp1_DualTask_ToTi_Subj9-16,18,300,285,z,100,LONG,1
SINGLE_TASK,Exp1_SingleTask_ToTi_Subj24-32,21,300,286,z,0,LONG,1
DUAL_TASK,Exp1_DualTask_ToTi_Subj9-16,28,350,286,m,100,LONG,1
SINGLE_TASK,Exp1_SingleTask_TiTo_Subj17-24,1,150,288,z,0,SHORT,1
SINGLE_TASK,Exp1_SingleTask_ToTi_Subj24-32,21,350,288,z,0,LONG,1
SINGLE_TASK,Exp1_SingleTask_ToTi_Subj24-32,21,350,288,z,0,LONG,1
SINGLE_TASK,Exp1_SingleTask_ToTi_Subj24-32,7,300,288,z,0,LONG,1
SINGLE_TASK,Exp1_SingleTask_ToTi_Subj24-32,21,300,288,z,100,LONG,1
SINGLE_TASK,Exp1_SingleTask_ToTi_Subj24-32,21,350,288,z,100,LONG,1
SINGLE_TASK,Exp1_SingleTask_ToTi_Subj24-32,29,350,288,m,100,LONG,1
DUAL_TASK,Exp1_DualTask_TiTo_Subj1-8,13,350,288,m,100,LONG,1
SINGLE_TASK,Exp1_SingleTask_ToTi_Subj24-32,21,350,289,m,0,LONG,1
SINGLE_TASK,Exp1_SingleTask_ToTi_Subj24-32,31,350,289,z,0,LONG,1
SINGLE_TASK,Exp1_SingleTask_TiTo_Subj17-24,3,300,289,m,100,LONG,1
SINGLE_TASK,Exp1_SingleTask_ToTi_Subj24-32,31,150,290,z,0,SHORT,1
SINGLE_TASK,Exp1_SingleTask_TiTo_Subj17-24,3,300,290,m,100,LONG,1
SINGLE_TASK,Exp1_SingleTask_TiTo_Subj17-24,3,300,291,z,0,LONG,1
SINGLE_TASK,Exp1_SingleTask_ToTi_Subj24-32,21,350,291,z,0,LONG,1
SINGLE_TASK,Exp1_SingleTask_TiTo_Subj17-24,3,100,292,m,0,SHORT,1
SINGLE_TASK,Exp1_SingleTask_ToTi_Subj24-32,21,350,292,z,0,LONG,1
DUAL_TASK,Exp1_DualTask_ToTi_Subj9-16,28,300,292,z,0,LONG,1
SINGLE_TASK,Exp1_SingleTask_TiTo_Subj17-24,3,300,292,m,100,LONG,1
DUAL_TASK,Exp1_DualTask_ToTi_Subj9-16,28,300,292,z,100,LONG,1
SINGLE_TASK,Exp1_SingleTask_TiTo_Subj17-24,1,300,293,z,0,LONG,1
SINGLE_TASK,Exp1_SingleTask_TiTo_Subj17-24,1,150,293,z,0,SHORT,1
SINGLE_TASK,Exp1_SingleTask_TiTo_Subj17-24,3,150,293,z,0,SHORT,1
SINGLE_TASK,Exp1_SingleTask_TiTo_Subj17-24,3,300,293,m,0,LONG,1
SINGLE_TASK,Exp1_SingleTask_ToTi_Subj24-32,6,350,293,z,0,LONG,1
DUAL_TASK,Exp1_DualTask_TiTo_Subj1-8,13,350,294,m,0,LONG,1
SINGLE_TASK,Exp1_SingleTask_TiTo_Subj17-24,3,350,294,m,100,LONG,1
DUAL_TASK,Exp1_DualTask_ToTi_Subj9-16,18,150,294,z,100,SHORT,1
DUAL_TASK,Exp1_DualTask_TiTo_Subj1-8,13,300,295,m,0,LONG,1
DUAL_TASK,Exp1_DualTask_ToTi_Subj9-16,28,100,295,m,0,SHORT,1
SINGLE_TASK,Exp1_SingleTask_TiTo_Subj17-24,1,100,295,m,100,SHORT,1
SINGLE_TASK,Exp1_SingleTask_TiTo_Subj17-24,3,100,296,m,0,SHORT,1
SINGLE_TASK,Exp1_SingleTask_ToTi_Subj24-32,21,300,296,z,0,LONG,1
SINGLE_TASK,Exp1_SingleTask_ToTi_Subj24-32,21,350,296,z,0,LONG,1
SINGLE_TASK,Exp1_SingleTask_ToTi_Subj24-32,21,300,296,z,0,LONG,1
DUAL_TASK,Exp1_DualTask_ToTi_Subj9-16,18,100,296,m,0,SHORT,1
DUAL_TASK,Exp1_DualTask_ToTi_Subj9-16,18,100,296,m,0,SHORT,1
DUAL_TASK,Exp1_DualTask_TiTo_Subj1-8,22,150,296,m,0,SHORT,1
SINGLE_TASK,Exp1_SingleTask_ToTi_Subj24-32,21,350,296,m,100,LONG,1
SINGLE_TASK,Exp1_SingleTask_ToTi_Subj24-32,21,350,296,z,100,LONG,1
SINGLE_TASK,Exp1_SingleTask_ToTi_Subj24-32,21,300,296,m,100,LONG,1
DUAL_TASK,Exp1_DualTask_ToTi_Subj9-16,18,150,296,z,100,SHORT,1
DUAL_TASK,Exp1_DualTask_ToTi_Subj9-16,28,300,296,m,100,LONG,1
SINGLE_TASK,Exp1_SingleTask_TiTo_Subj17-24,1,350,297,m,0,LONG,1
DUAL_TASK,Exp1_DualTask_TiTo_Subj1-8,8,350,297,m,0,LONG,1
SINGLE_TASK,Exp1_SingleTask_ToTi_Subj24-32,21,350,297,m,100,LONG,1
DUAL_TASK,Exp1_DualTask_TiTo_Subj1-8,22,350,297,z,100,LONG,1
SINGLE_TASK,Exp1_SingleTask_ToTi_Subj24-32,21,350,298,m,0,LONG,1
SINGLE_TASK,Exp1_SingleTask_ToTi_Subj24-32,31,100,298,z,0,SHORT,1
SINGLE_TASK,Exp1_SingleTask_ToTi_Subj24-32,31,100,298,z,0,SHORT,1
DUAL_TASK,Exp1_DualTask_TiTo_Subj1-8,22,150,298,m,100,SHORT,1
SINGLE_TASK,Exp1_SingleTask_TiTo_Subj17-24,1,300,299,m,0,LONG,1
SINGLE_TASK,Exp1_SingleTask_ToTi_Subj24-32,25,350,299,m,0,LONG,1
SINGLE_TASK,Exp1_SingleTask_ToTi_Subj24-32,21,300,300,z,0,LONG,1
SINGLE_TASK,Exp1_SingleTask_ToTi_Subj24-32,21,300,300,z,0,LONG,1
SINGLE_TASK,Exp1_SingleTask_ToTi_Subj24-32,21,350,300,m,0,LONG,1
SINGLE_TASK,Exp1_SingleTask_ToTi_Subj24-32,31,150,300,m,0,SHORT,1
DUAL_TASK,Exp1_DualTask_ToTi_Subj9-16,28,150,300,z,0,SHORT,1
SINGLE_TASK,Exp1_SingleTask_TiTo_Subj17-24,1,100,300,z,100,SHORT,1
SINGLE_TASK,Exp1_SingleTask_ToTi_Subj24-32,21,350,300,m,100,LONG,1
DUAL_TASK,Exp1_DualTask_ToTi_Subj9-16,28,300,300,z,100,LONG,1
SINGLE_TASK,Exp1_SingleTask_ToTi_Subj24-32,31,350,301,m,0,LONG,1
DUAL_TASK,Exp1_DualTask_TiTo_Subj1-8,13,350,301,m,0,LONG,1
DUAL_TASK,Exp1_DualTask_ToTi_Subj9-16,16,100,301,z,0,SHORT,1
SINGLE_TASK,Exp1_SingleTask_TiTo_Subj17-24,3,100,301,m,100,SHORT,1
DUAL_TASK,Exp1_DualTask_ToTi_Subj9-16,28,350,301,m,100,LONG,1
SINGLE_TASK,Exp1_SingleTask_TiTo_Subj17-24,1,350,302,m,0,LONG,1
SINGLE_TASK,Exp1_SingleTask_ToTi_Subj24-32,21,350,302,m,0,LONG,1
SINGLE_TASK,Exp1_SingleTask_ToTi_Subj24-32,21,150,302,z,0,SHORT,1
SINGLE_TASK,Exp1_SingleTask_TiTo_Subj17-24,3,150,302,m,100,SHORT,1
SINGLE_TASK,Exp1_SingleTask_ToTi_Subj24-32,31,350,302,z,100,LONG,1
DUAL_TASK,Exp1_DualTask_ToTi_Subj9-16,28,150,302,m,100,SHORT,1
SINGLE_TASK,Exp1_SingleTask_ToTi_Subj24-32,21,350,303,z,0,LONG,1
SINGLE_TASK,Exp1_SingleTask_ToTi_Subj24-32,21,300,303,m,0,LONG,1
SINGLE_TASK,Exp1_SingleTask_ToTi_Subj24-32,29,300,303,z,100,LONG,1
SINGLE_TASK,Exp1_SingleTask_TiTo_Subj17-24,3,150,304,m,0,SHORT,1
SINGLE_TASK,Exp1_SingleTask_ToTi_Subj24-32,21,350,304,m,0,LONG,1
SINGLE_TASK,Exp1_SingleTask_TiTo_Subj17-24,3,300,304,z,100,LONG,1
SINGLE_TASK,Exp1_SingleTask_ToTi_Subj24-32,6,350,304,m,100,LONG,1
SINGLE_TASK,Exp1_SingleTask_ToTi_Subj24-32,21,350,305,m,0,LONG,1
SINGLE_TASK,Exp1_SingleTask_ToTi_Subj24-32,21,150,305,z,0,SHORT,1
SINGLE_TASK,Exp1_SingleTask_ToTi_Subj24-32,31,150,305,m,0,SHORT,1
SINGLE_TASK,Exp1_SingleTask_TiTo_Subj17-24,3,150,305,m,100,SHORT,1
SINGLE_TASK,Exp1_SingleTask_TiTo_Subj17-24,3,300,306,m,0,LONG,1
SINGLE_TASK,Exp1_SingleTask_ToTi_Subj24-32,21,150,306,z,0,SHORT,1
SINGLE_TASK,Exp1_SingleTask_ToTi_Subj24-32,31,350,306,m,0,LONG,1
DUAL_TASK,Exp1_DualTask_TiTo_Subj1-8,10,350,306,z,0,LONG,1
DUAL_TASK,Exp1_DualTask_TiTo_Subj1-8,13,350,306,z,0,LONG,1
SINGLE_TASK,Exp1_SingleTask_TiTo_Subj17-24,3,150,306,m,100,SHORT,1
SINGLE_TASK,Exp1_SingleTask_ToTi_Subj24-32,21,300,306,z,100,LONG,1
SINGLE_TASK,Exp1_SingleTask_TiTo_Subj17-24,1,150,307,z,0,SHORT,1
SINGLE_TASK,Exp1_SingleTask_ToTi_Subj24-32,21,100,307,z,0,SHORT,1
SINGLE_TASK,Exp1_SingleTask_ToTi_Subj24-32,21,100,307,m,0,SHORT,1
SINGLE_TASK,Exp1_SingleTask_ToTi_Subj24-32,21,350,307,z,100,LONG,1
SINGLE_TASK,Exp1_SingleTask_TiTo_Subj17-24,3,150,308,z,0,SHORT,1
SINGLE_TASK,Exp1_SingleTask_ToTi_Subj24-32,21,300,308,m,0,LONG,1
SINGLE_TASK,Exp1_SingleTask_ToTi_Subj24-32,21,300,308,m,0,LONG,1
SINGLE_TASK,Exp1_SingleTask_TiTo_Subj17-24,23,350,308,z,100,LONG,1
SINGLE_TASK,Exp1_SingleTask_TiTo_Subj17-24,3,300,308,z,100,LONG,1
SINGLE_TASK,Exp1_SingleTask_ToTi_Subj24-32,21,300,308,z,100,LONG,1
SINGLE_TASK,Exp1_SingleTask_ToTi_Subj24-32,21,350,308,m,100,LONG,1
SINGLE_TASK,Exp1_SingleTask_ToTi_Subj24-32,31,300,309,m,0,LONG,1
DUAL_TASK,Exp1_DualTask_TiTo_Subj1-8,13,300,309,z,0,LONG,1
DUAL_TASK,Exp1_DualTask_TiTo_Subj1-8,22,350,309,z,0,LONG,1
DUAL_TASK,Exp1_DualTask_TiTo_Subj1-8,22,100,309,m,0,SHORT,1
SINGLE_TASK,Exp1_SingleTask_TiTo_Subj17-24,1,300,309,z,100,LONG,1
SINGLE_TASK,Exp1_SingleTask_TiTo_Subj17-24,2,300,309,z,100,LONG,1
SINGLE_TASK,Exp1_SingleTask_ToTi_Subj24-32,21,300,309,z,100,LONG,1
SINGLE_TASK,Exp1_SingleTask_TiTo_Subj17-24,2,150,310,m,0,SHORT,1
SINGLE_TASK,Exp1_SingleTask_TiTo_Subj17-24,23,150,310,m,0,SHORT,1
SINGLE_TASK,Exp1_SingleTask_ToTi_Subj24-32,21,150,310,z,0,SHORT,1
SINGLE_TASK,Exp1_SingleTask_ToTi_Subj24-32,21,150,310,z,0,SHORT,1
SINGLE_TASK,Exp1_SingleTask_ToTi_Subj24-32,21,350,310,m,0,LONG,1
SINGLE_TASK,Exp1_SingleTask_ToTi_Subj24-32,31,300,310,z,0,LONG,1
DUAL_TASK,Exp1_DualTask_ToTi_Subj9-16,28,150,310,z,0,SHORT,1
SINGLE_TASK,Exp1_SingleTask_TiTo_Subj17-24,1,100,310,m,100,SHORT,1
SINGLE_TASK,Exp1_SingleTask_ToTi_Subj24-32,21,300,310,z,100,LONG,1
SINGLE_TASK,Exp1_SingleTask_ToTi_Subj24-32,21,350,310,z,100,LONG,1
SINGLE_TASK,Exp1_SingleTask_ToTi_Subj24-32,21,300,311,m,0,LONG,1
SINGLE_TASK,Exp1_SingleTask_ToTi_Subj24-32,21,350,311,m,0,LONG,1
SINGLE_TASK,Exp1_SingleTask_ToTi_Subj24-32,21,150,311,m,0,SHORT,1
DUAL_TASK,Exp1_DualTask_TiTo_Subj1-8,13,150,311,z,0,SHORT,1
SINGLE_TASK,Exp1_SingleTask_ToTi_Subj24-32,21,350,311,z,100,LONG,1
SINGLE_TASK,Exp1_SingleTask_ToTi_Subj24-32,21,350,311,m,100,LONG,1
SINGLE_TASK,Exp1_SingleTask_ToTi_Subj24-32,21,300,311,m,100,LONG,1
SINGLE_TASK,Exp1_SingleTask_TiTo_Subj17-24,3,350,312,z,0,LONG,1
SINGLE_TASK,Exp1_SingleTask_ToTi_Subj24-32,21,350,312,z,0,LONG,1
SINGLE_TASK,Exp1_SingleTask_ToTi_Subj24-32,21,150,312,m,0,SHORT,1
SINGLE_TASK,Exp1_SingleTask_ToTi_Subj24-32,21,350,312,m,100,LONG,1
SINGLE_TASK,Exp1_SingleTask_ToTi_Subj24-32,21,350,313,z,0,LONG,1
SINGLE_TASK,Exp1_SingleTask_ToTi_Subj24-32,21,350,313,m,0,LONG,1
SINGLE_TASK,Exp1_SingleTask_TiTo_Subj17-24,23,100,314,m,0,SHORT,1
SINGLE_TASK,Exp1_SingleTask_TiTo_Subj17-24,5,150,314,z,0,SHORT,1
SINGLE_TASK,Exp1_SingleTask_ToTi_Subj24-32,21,150,314,z,0,SHORT,1
SINGLE_TASK,Exp1_SingleTask_ToTi_Subj24-32,21,300,314,m,0,LONG,1
SINGLE_TASK,Exp1_SingleTask_TiTo_Subj17-24,1,100,314,m,100,SHORT,1
SINGLE_TASK,Exp1_SingleTask_TiTo_Subj17-24,3,350,314,m,100,LONG,1
SINGLE_TASK,Exp1_SingleTask_TiTo_Subj17-24,1,100,315,m,0,SHORT,1
SINGLE_TASK,Exp1_SingleTask_TiTo_Subj17-24,3,300,315,z,0,LONG,1
SINGLE_TASK,Exp1_SingleTask_ToTi_Subj24-32,21,150,315,z,0,SHORT,1
SINGLE_TASK,Exp1_SingleTask_ToTi_Subj24-32,21,100,315,m,0,SHORT,1
DUAL_TASK,Exp1_DualTask_ToTi_Subj9-16,16,300,315,z,0,LONG,1
SINGLE_TASK,Exp1_SingleTask_TiTo_Subj17-24,1,100,316,z,0,SHORT,1
SINGLE_TASK,Exp1_SingleTask_ToTi_Subj24-32,21,350,316,m,0,LONG,1
SINGLE_TASK,Exp1_SingleTask_ToTi_Subj24-32,21,150,316,m,100,SHORT,1
SINGLE_TASK,Exp1_SingleTask_ToTi_Subj24-32,31,150,316,z,100,SHORT,1
DUAL_TASK,Exp1_DualTask_TiTo_Subj1-8,13,350,316,z,100,LONG,1
SINGLE_TASK,Exp1_SingleTask_ToTi_Subj24-32,21,350,317,z,0,LONG,1
SINGLE_TASK,Exp1_SingleTask_ToTi_Subj24-32,21,300,317,z,0,LONG,1
SINGLE_TASK,Exp1_SingleTask_ToTi_Subj24-32,29,300,317,z,0,LONG,1
SINGLE_TASK,Exp1_SingleTask_ToTi_Subj24-32,31,350,317,z,0,LONG,1
SINGLE_TASK,Exp1_SingleTask_ToTi_Subj24-32,21,100,317,z,100,SHORT,1
SINGLE_TASK,Exp1_SingleTask_ToTi_Subj24-32,21,300,317,z,100,LONG,1
SINGLE_TASK,Exp1_SingleTask_ToTi_Subj24-32,31,150,317,z,100,SHORT,1
SINGLE_TASK,Exp1_SingleTask_ToTi_Subj24-32,21,350,318,m,0,LONG,1
SINGLE_TASK,Exp1_SingleTask_ToTi_Subj24-32,21,150,318,z,0,SHORT,1
SINGLE_TASK,Exp1_SingleTask_TiTo_Subj17-24,23,100,319,z,0,SHORT,1
SINGLE_TASK,Exp1_SingleTask_TiTo_Subj17-24,23,150,319,z,0,SHORT,1
SINGLE_TASK,Exp1_SingleTask_TiTo_Subj17-24,3,150,319,z,0,SHORT,1
SINGLE_TASK,Exp1_SingleTask_ToTi_Subj24-32,21,350,319,m,0,LONG,1
SINGLE_TASK,Exp1_SingleTask_ToTi_Subj24-32,21,350,319,m,0,LONG,1
SINGLE_TASK,Exp1_SingleTask_ToTi_Subj24-32,6,300,319,m,0,LONG,1
SINGLE_TASK,Exp1_SingleTask_TiTo_Subj17-24,23,300,319,z,100,LONG,1
SINGLE_TASK,Exp1_SingleTask_TiTo_Subj17-24,3,150,319,m,100,SHORT,1
SINGLE_TASK,Exp1_SingleTask_ToTi_Subj24-32,21,300,319,m,100,LONG,1
SINGLE_TASK,Exp1_SingleTask_ToTi_Subj24-32,21,300,319,m,100,LONG,1
SINGLE_TASK,Exp1_SingleTask_ToTi_Subj24-32,21,300,320,z,0,LONG,1
SINGLE_TASK,Exp1_SingleTask_ToTi_Subj24-32,21,150,320,m,100,SHORT,1
SINGLE_TASK,Exp1_SingleTask_ToTi_Subj24-32,21,300,321,m,0,LONG,1
SINGLE_TASK,Exp1_SingleTask_ToTi_Subj24-32,21,300,321,m,0,LONG,1
SINGLE_TASK,Exp1_SingleTask_ToTi_Subj24-32,31,100,321,z,0,SHORT,1
SINGLE_TASK,Exp1_SingleTask_ToTi_Subj24-32,21,300,321,z,100,LONG,1
SINGLE_TASK,Exp1_SingleTask_TiTo_Subj17-24,23,150,322,z,0,SHORT,1
SINGLE_TASK,Exp1_SingleTask_ToTi_Subj24-32,21,150,322,m,0,SHORT,1
SINGLE_TASK,Exp1_SingleTask_ToTi_Subj24-32,21,100,322,z,0,SHORT,1
SINGLE_TASK,Exp1_SingleTask_ToTi_Subj24-32,29,300,322,z,0,LONG,1
SINGLE_TASK,Exp1_SingleTask_TiTo_Subj17-24,23,350,322,m,100,LONG,1
SINGLE_TASK,Exp1_SingleTask_ToTi_Subj24-32,21,300,322,m,100,LONG,1
SINGLE_TASK,Exp1_SingleTask_ToTi_Subj24-32,21,300,322,m,100,LONG,1
SINGLE_TASK,Exp1_SingleTask_ToTi_Subj24-32,31,150,322,m,100,SHORT,1
SINGLE_TASK,Exp1_SingleTask_TiTo_Subj17-24,2,300,323,m,0,LONG,1
SINGLE_TASK,Exp1_SingleTask_TiTo_Subj17-24,23,300,323,z,0,LONG,1
SINGLE_TASK,Exp1_SingleTask_TiTo_Subj17-24,23,350,323,m,0,LONG,1
SINGLE_TASK,Exp1_SingleTask_TiTo_Subj17-24,23,350,323,z,100,LONG,1
SINGLE_TASK,Exp1_SingleTask_ToTi_Subj24-32,21,350,323,m,100,LONG,1
SINGLE_TASK,Exp1_SingleTask_ToTi_Subj24-32,21,300,323,z,100,LONG,1
SINGLE_TASK,Exp1_SingleTask_ToTi_Subj24-32,31,300,323,m,100,LONG,1
DUAL_TASK,Exp1_DualTask_ToTi_Subj9-16,28,150,323,m,100,SHORT,1
SINGLE_TASK,Exp1_SingleTask_ToTi_Subj24-32,21,150,324,z,0,SHORT,1
SINGLE_TASK,Exp1_SingleTask_ToTi_Subj24-32,21,150,324,z,100,SHORT,1
SINGLE_TASK,Exp1_SingleTask_ToTi_Subj24-32,21,350,324,z,100,LONG,1
DUAL_TASK,Exp1_DualTask_ToTi_Subj9-16,28,100,324,z,100,SHORT,1
SINGLE_TASK,Exp1_SingleTask_TiTo_Subj17-24,3,100,325,m,0,SHORT,1
SINGLE_TASK,Exp1_SingleTask_ToTi_Subj24-32,21,150,325,m,0,SHORT,1
SINGLE_TASK,Exp1_SingleTask_ToTi_Subj24-32,31,150,325,z,0,SHORT,1
SINGLE_TASK,Exp1_SingleTask_TiTo_Subj17-24,3,350,325,m,100,LONG,1
SINGLE_TASK,Exp1_SingleTask_ToTi_Subj24-32,21,300,326,m,0,LONG,1
SINGLE_TASK,Exp1_SingleTask_ToTi_Subj24-32,21,150,326,m,0,SHORT,1
SINGLE_TASK,Exp1_SingleTask_ToTi_Subj24-32,21,350,326,m,0,LONG,1
SINGLE_TASK,Exp1_SingleTask_ToTi_Subj24-32,21,150,326,m,0,SHORT,1
SINGLE_TASK,Exp1_SingleTask_TiTo_Subj17-24,23,300,326,m,100,LONG,1
SINGLE_TASK,Exp1_SingleTask_ToTi_Subj24-32,21,300,326,m,100,LONG,1
SINGLE_TASK,Exp1_SingleTask_ToTi_Subj24-32,21,350,326,z,100,LONG,1
SINGLE_TASK,Exp1_SingleTask_ToTi_Subj24-32,31,150,326,z,100,SHORT,1
SINGLE_TASK,Exp1_SingleTask_ToTi_Subj24-32,21,300,327,z,0,LONG,1
SINGLE_TASK,Exp1_SingleTask_TiTo_Subj17-24,3,150,327,z,100,SHORT,1
SINGLE_TASK,Exp1_SingleTask_ToTi_Subj24-32,21,300,327,m,100,LONG,1
SINGLE_TASK,Exp1_SingleTask_ToTi_Subj24-32,31,300,327,z,100,LONG,1
SINGLE_TASK,Exp1_SingleTask_TiTo_Subj17-24,2,300,328,m,0,LONG,1
SINGLE_TASK,Exp1_SingleTask_TiTo_Subj17-24,3,100,328,z,0,SHORT,1
SINGLE_TASK,Exp1_SingleTask_TiTo_Subj17-24,3,150,328,m,0,SHORT,1
SINGLE_TASK,Exp1_SingleTask_TiTo_Subj17-24,3,100,328,z,0,SHORT,1
SINGLE_TASK,Exp1_SingleTask_ToTi_Subj24-32,21,350,328,z,0,LONG,1
SINGLE_TASK,Exp1_SingleTask_ToTi_Subj24-32,21,150,328,z,0,SHORT,1
SINGLE_TASK,Exp1_SingleTask_ToTi_Subj24-32,6,350,328,z,0,LONG,1
DUAL_TASK,Exp1_DualTask_ToTi_Subj9-16,18,150,328,m,0,SHORT,1
SINGLE_TASK,Exp1_SingleTask_ToTi_Subj24-32,21,350,328,m,100,LONG,1
SINGLE_TASK,Exp1_SingleTask_ToTi_Subj24-32,21,300,328,m,100,LONG,1
SINGLE_TASK,Exp1_SingleTask_ToTi_Subj24-32,21,300,328,z,100,LONG,1
DUAL_TASK,Exp1_DualTask_ToTi_Subj9-16,28,100,328,m,100,SHORT,1
SINGLE_TASK,Exp1_SingleTask_TiTo_Subj17-24,23,150,329,z,0,SHORT,1
SINGLE_TASK,Exp1_SingleTask_ToTi_Subj24-32,21,300,329,m,0,LONG,1
SINGLE_TASK,Exp1_SingleTask_ToTi_Subj24-32,29,150,329,m,0,SHORT,1
SINGLE_TASK,Exp1_SingleTask_ToTi_Subj24-32,7,350,329,z,0,LONG,1
SINGLE_TASK,Exp1_SingleTask_ToTi_Subj24-32,21,300,329,m,100,LONG,1
SINGLE_TASK,Exp1_SingleTask_ToTi_Subj24-32,21,300,329,m,100,LONG,1
SINGLE_TASK,Exp1_SingleTask_ToTi_Subj24-32,21,350,329,m,100,LONG,1
SINGLE_TASK,Exp1_SingleTask_ToTi_Subj24-32,21,350,330,z,0,LONG,1
SINGLE_TASK,Exp1_SingleTask_ToTi_Subj24-32,21,150,330,m,0,SHORT,1
SINGLE_TASK,Exp1_SingleTask_ToTi_Subj24-32,31,100,330,z,0,SHORT,1
SINGLE_TASK,Exp1_SingleTask_ToTi_Subj24-32,31,300,330,z,0,LONG,1
SINGLE_TASK,Exp1_SingleTask_ToTi_Subj24-32,31,300,330,m,0,LONG,1
DUAL_TASK,Exp1_DualTask_TiTo_Subj1-8,12,300,330,z,0,LONG,1
SINGLE_TASK,Exp1_SingleTask_ToTi_Subj24-32,21,350,330,m,100,LONG,1
SINGLE_TASK,Exp1_SingleTask_ToTi_Subj24-32,31,350,330,z,100,LONG,1
SINGLE_TASK,Exp1_SingleTask_ToTi_Subj24-32,31,300,330,z,100,LONG,1
DUAL_TASK,Exp1_DualTask_ToTi_Subj9-16,28,350,330,m,100,LONG,1
SINGLE_TASK,Exp1_SingleTask_TiTo_Subj17-24,2,300,331,m,0,LONG,1
SINGLE_TASK,Exp1_SingleTask_TiTo_Subj17-24,23,350,331,z,0,LONG,1
SINGLE_TASK,Exp1_SingleTask_ToTi_Subj24-32,21,350,331,z,0,LONG,1
SINGLE_TASK,Exp1_SingleTask_ToTi_Subj24-32,21,350,331,z,0,LONG,1
SINGLE_TASK,Exp1_SingleTask_ToTi_Subj24-32,21,350,331,z,0,LONG,1
SINGLE_TASK,Exp1_SingleTask_ToTi_Subj24-32,21,150,331,z,0,SHORT,1
SINGLE_TASK,Exp1_SingleTask_ToTi_Subj24-32,29,300,331,m,0,LONG,1
SINGLE_TASK,Exp1_SingleTask_ToTi_Subj24-32,31,300,331,m,0,LONG,1
SINGLE_TASK,Exp1_SingleTask_ToTi_Subj24-32,31,350,331,z,0,LONG,1
SINGLE_TASK,Exp1_SingleTask_TiTo_Subj17-24,23,350,331,m,100,LONG,1
SINGLE_TASK,Exp1_SingleTask_ToTi_Subj24-32,21,300,331,z,100,LONG,1
SINGLE_TASK,Exp1_SingleTask_ToTi_Subj24-32,21,350,331,m,100,LONG,1
SINGLE_TASK,Exp1_SingleTask_TiTo_Subj17-24,23,100,332,m,0,SHORT,1
SINGLE_TASK,Exp1_SingleTask_ToTi_Subj24-32,21,300,332,z,0,LONG,1
SINGLE_TASK,Exp1_SingleTask_ToTi_Subj24-32,31,300,332,m,0,LONG,1
SINGLE_TASK,Exp1_SingleTask_TiTo_Subj17-24,23,300,332,z,100,LONG,1
SINGLE_TASK,Exp1_SingleTask_ToTi_Subj24-32,21,300,332,z,100,LONG,1
SINGLE_TASK,Exp1_SingleTask_TiTo_Subj17-24,23,150,333,z,0,SHORT,1
SINGLE_TASK,Exp1_SingleTask_TiTo_Subj17-24,3,100,333,z,0,SHORT,1
SINGLE_TASK,Exp1_SingleTask_ToTi_Subj24-32,21,150,333,m,0,SHORT,1
SINGLE_TASK,Exp1_SingleTask_ToTi_Subj24-32,21,300,333,m,0,LONG,1
SINGLE_TASK,Exp1_SingleTask_ToTi_Subj24-32,31,100,333,m,0,SHORT,1
SINGLE_TASK,Exp1_SingleTask_ToTi_Subj24-32,6,150,333,z,0,SHORT,1
SINGLE_TASK,Exp1_SingleTask_ToTi_Subj24-32,6,150,333,m,0,SHORT,1
SINGLE_TASK,Exp1_SingleTask_ToTi_Subj24-32,21,300,333,z,100,LONG,1
SINGLE_TASK,Exp1_SingleTask_ToTi_Subj24-32,21,300,333,m,100,LONG,1
SINGLE_TASK,Exp1_SingleTask_ToTi_Subj24-32,21,100,333,z,100,SHORT,1
SINGLE_TASK,Exp1_SingleTask_ToTi_Subj24-32,21,100,333,z,100,SHORT,1
DUAL_TASK,Exp1_DualTask_TiTo_Subj1-8,22,150,333,m,100,SHORT,1
SINGLE_TASK,Exp1_SingleTask_TiTo_Subj17-24,23,300,334,z,0,LONG,1
SINGLE_TASK,Exp1_SingleTask_TiTo_Subj17-24,23,300,334,m,0,LONG,1
SINGLE_TASK,Exp1_SingleTask_TiTo_Subj17-24,23,150,334,m,0,SHORT,1
SINGLE_TASK,Exp1_SingleTask_ToTi_Subj24-32,21,350,334,m,0,LONG,1
SINGLE_TASK,Exp1_SingleTask_ToTi_Subj24-32,21,150,334,m,0,SHORT,1
SINGLE_TASK,Exp1_SingleTask_TiTo_Subj17-24,23,300,334,m,100,LONG,1
SINGLE_TASK,Exp1_SingleTask_ToTi_Subj24-32,21,300,334,z,100,LONG,1
SINGLE_TASK,Exp1_SingleTask_ToTi_Subj24-32,21,300,334,m,100,LONG,1
SINGLE_TASK,Exp1_SingleTask_TiTo_Subj17-24,4,100,335,z,0,SHORT,1
SINGLE_TASK,Exp1_SingleTask_ToTi_Subj24-32,21,300,335,z,0,LONG,1
SINGLE_TASK,Exp1_SingleTask_ToTi_Subj24-32,6,350,335,z,0,LONG,1
SINGLE_TASK,Exp1_SingleTask_ToTi_Subj24-32,21,350,335,m,100,LONG,1
SINGLE_TASK,Exp1_SingleTask_ToTi_Subj24-32,21,350,336,m,0,LONG,1
SINGLE_TASK,Exp1_SingleTask_ToTi_Subj24-32,21,100,336,m,0,SHORT,1
SINGLE_TASK,Exp1_SingleTask_ToTi_Subj24-32,21,150,336,m,0,SHORT,1
SINGLE_TASK,Exp1_SingleTask_ToTi_Subj24-32,21,350,336,m,100,LONG,1
SINGLE_TASK,Exp1_SingleTask_ToTi_Subj24-32,21,300,336,z,100,LONG,1
SINGLE_TASK,Exp1_SingleTask_ToTi_Subj24-32,21,100,337,m,0,SHORT,1
SINGLE_TASK,Exp1_SingleTask_ToTi_Subj24-32,21,100,337,m,0,SHORT,1
DUAL_TASK,Exp1_DualTask_ToTi_Subj9-16,28,350,337,z,0,LONG,1
SINGLE_TASK,Exp1_SingleTask_TiTo_Subj17-24,1,150,337,m,100,SHORT,1
SINGLE_TASK,Exp1_SingleTask_TiTo_Subj17-24,1,350,337,z,100,LONG,1
SINGLE_TASK,Exp1_SingleTask_ToTi_Subj24-32,21,300,337,m,100,LONG,1
SINGLE_TASK,Exp1_SingleTask_ToTi_Subj24-32,21,300,337,z,100,LONG,1
SINGLE_TASK,Exp1_SingleTask_ToTi_Subj24-32,21,350,337,z,100,LONG,1
DUAL_TASK,Exp1_DualTask_ToTi_Subj9-16,28,300,337,z,100,LONG,1
SINGLE_TASK,Exp1_SingleTask_TiTo_Subj17-24,3,150,338,m,0,SHORT,1
SINGLE_TASK,Exp1_SingleTask_TiTo_Subj17-24,1,300,338,m,100,LONG,1
SINGLE_TASK,Exp1_SingleTask_TiTo_Subj17-24,1,350,338,z,100,LONG,1
SINGLE_TASK,Exp1_SingleTask_TiTo_Subj17-24,23,150,338,z,100,SHORT,1
SINGLE_TASK,Exp1_SingleTask_TiTo_Subj17-24,23,350,338,z,100,LONG,1
SINGLE_TASK,Exp1_SingleTask_ToTi_Subj24-32,21,350,338,z,100,LONG,1
SINGLE_TASK,Exp1_SingleTask_ToTi_Subj24-32,21,350,338,m,100,LONG,1
SINGLE_TASK,Exp1_SingleTask_ToTi_Subj24-32,21,300,338,z,100,LONG,1
SINGLE_TASK,Exp1_SingleTask_ToTi_Subj24-32,21,350,338,z,100,LONG,1
SINGLE_TASK,Exp1_SingleTask_ToTi_Subj24-32,21,300,338,z,100,LONG,1
SINGLE_TASK,Exp1_SingleTask_TiTo_Subj17-24,2,350,339,m,0,LONG,1
SINGLE_TASK,Exp1_SingleTask_TiTo_Subj17-24,23,100,339,z,0,SHORT,1
SINGLE_TASK,Exp1_SingleTask_TiTo_Subj17-24,23,150,339,m,0,SHORT,1
SINGLE_TASK,Exp1_SingleTask_TiTo_Subj17-24,24,300,339,m,0,LONG,1
SINGLE_TASK,Exp1_SingleTask_TiTo_Subj17-24,3,150,339,z,0,SHORT,1
SINGLE_TASK,Exp1_SingleTask_ToTi_Subj24-32,21,100,339,z,0,SHORT,1
SINGLE_TASK,Exp1_SingleTask_ToTi_Subj24-32,21,100,339,z,0,SHORT,1
SINGLE_TASK,Exp1_SingleTask_ToTi_Subj24-32,21,100,339,m,0,SHORT,1
SINGLE_TASK,Exp1_SingleTask_ToTi_Subj24-32,31,300,339,m,0,LONG,1
SINGLE_TASK,Exp1_SingleTask_ToTi_Subj24-32,6,300,339,m,0,LONG,1
SINGLE_TASK,Exp1_SingleTask_TiTo_Subj17-24,23,300,339,m,100,LONG,1
SINGLE_TASK,Exp1_SingleTask_TiTo_Subj17-24,3,100,339,m,100,SHORT,1
SINGLE_TASK,Exp1_SingleTask_ToTi_Subj24-32,21,300,339,m,100,LONG,1
SINGLE_TASK,Exp1_SingleTask_TiTo_Subj17-24,23,300,340,z,0,LONG,1
SINGLE_TASK,Exp1_SingleTask_ToTi_Subj24-32,21,150,340,m,0,SHORT,1
SINGLE_TASK,Exp1_SingleTask_ToTi_Subj24-32,21,150,340,z,0,SHORT,1
SINGLE_TASK,Exp1_SingleTask_ToTi_Subj24-32,21,150,340,m,0,SHORT,1
SINGLE_TASK,Exp1_SingleTask_ToTi_Subj24-32,31,300,340,z,0,LONG,1
SINGLE_TASK,Exp1_SingleTask_ToTi_Subj24-32,31,300,340,z,0,LONG,1
SINGLE_TASK,Exp1_SingleTask_TiTo_Subj17-24,1,150,340,m,100,SHORT,1
SINGLE_TASK,Exp1_SingleTask_TiTo_Subj17-24,2,300,340,z,100,LONG,1
SINGLE_TASK,Exp1_SingleTask_TiTo_Subj17-24,23,150,340,m,100,SHORT,1
SINGLE_TASK,Exp1_SingleTask_TiTo_Subj17-24,23,300,340,z,100,LONG,1
SINGLE_TASK,Exp1_SingleTask_TiTo_Subj17-24,23,300,340,m,100,LONG,1
SINGLE_TASK,Exp1_SingleTask_TiTo_Subj17-24,3,300,340,m,100,LONG,1
SINGLE_TASK,Exp1_SingleTask_ToTi_Subj24-32,21,350,340,z,100,LONG,1
SINGLE_TASK,Exp1_SingleTask_ToTi_Subj24-32,25,350,340,m,100,LONG,1
SINGLE_TASK,Exp1_SingleTask_TiTo_Subj17-24,23,300,341,m,0,LONG,1
SINGLE_TASK,Exp1_SingleTask_ToTi_Subj24-32,21,300,341,z,0,LONG,1
SINGLE_TASK,Exp1_SingleTask_ToTi_Subj24-32,21,350,341,m,0,LONG,1
DUAL_TASK,Exp1_DualTask_TiTo_Subj1-8,13,100,341,z,0,SHORT,1
SINGLE_TASK,Exp1_SingleTask_TiTo_Subj17-24,23,300,341,m,100,LONG,1
SINGLE_TASK,Exp1_SingleTask_TiTo_Subj17-24,23,350,341,m,100,LONG,1
SINGLE_TASK,Exp1_SingleTask_ToTi_Subj24-32,21,300,341,m,100,LONG,1
SINGLE_TASK,Exp1_SingleTask_ToTi_Subj24-32,21,150,341,m,100,SHORT,1
SINGLE_TASK,Exp1_SingleTask_ToTi_Subj24-32,21,300,341,z,100,LONG,1
SINGLE_TASK,Exp1_SingleTask_ToTi_Subj24-32,29,300,341,z,100,LONG,1
SINGLE_TASK,Exp1_SingleTask_TiTo_Subj17-24,2,300,342,m,0,LONG,1
SINGLE_TASK,Exp1_SingleTask_TiTo_Subj17-24,23,100,342,m,0,SHORT,1
SINGLE_TASK,Exp1_SingleTask_TiTo_Subj17-24,23,100,342,z,0,SHORT,1
SINGLE_TASK,Exp1_SingleTask_ToTi_Subj24-32,21,100,342,z,0,SHORT,1
SINGLE_TASK,Exp1_SingleTask_ToTi_Subj24-32,21,350,342,z,0,LONG,1
DUAL_TASK,Exp1_DualTask_TiTo_Subj1-8,22,350,342,z,0,LONG,1
DUAL_TASK,Exp1_DualTask_ToTi_Subj9-16,28,350,342,z,0,LONG,1
SINGLE_TASK,Exp1_SingleTask_TiTo_Subj17-24,23,100,342,m,100,SHORT,1
SINGLE_TASK,Exp1_SingleTask_ToTi_Subj24-32,21,100,342,m,100,SHORT,1
SINGLE_TASK,Exp1_SingleTask_ToTi_Subj24-32,21,350,342,m,100,LONG,1
SINGLE_TASK,Exp1_SingleTask_TiTo_Subj17-24,23,300,343,m,0,LONG,1
SINGLE_TASK,Exp1_SingleTask_TiTo_Subj17-24,3,150,343,z,0,SHORT,1
SINGLE_TASK,Exp1_SingleTask_ToTi_Subj24-32,21,150,343,m,0,SHORT,1
DUAL_TASK,Exp1_DualTask_ToTi_Subj9-16,28,150,343,z,0,SHORT,1
SINGLE_TASK,Exp1_SingleTask_TiTo_Subj17-24,2,350,343,z,100,LONG,1
SINGLE_TASK,Exp1_SingleTask_TiTo_Subj17-24,3,300,343,m,100,LONG,1
SINGLE_TASK,Exp1_SingleTask_TiTo_Subj17-24,3,100,343,z,100,SHORT,1
SINGLE_TASK,Exp1_SingleTask_ToTi_Subj24-32,21,350,343,z,100,LONG,1
SINGLE_TASK,Exp1_SingleTask_ToTi_Subj24-32,21,350,344,z,0,LONG,1
SINGLE_TASK,Exp1_SingleTask_ToTi_Subj24-32,31,350,344,z,0,LONG,1
SINGLE_TASK,Exp1_SingleTask_TiTo_Subj17-24,23,150,344,z,100,SHORT,1
SINGLE_TASK,Exp1_SingleTask_TiTo_Subj17-24,23,300,344,z,100,LONG,1
SINGLE_TASK,Exp1_SingleTask_TiTo_Subj17-24,3,150,344,m,100,SHORT,1
SINGLE_TASK,Exp1_SingleTask_TiTo_Subj17-24,5,350,344,m,100,LONG,1
SINGLE_TASK,Exp1_SingleTask_ToTi_Subj24-32,21,300,344,z,100,LONG,1
SINGLE_TASK,Exp1_SingleTask_ToTi_Subj24-32,21,300,344,m,100,LONG,1
SINGLE_TASK,Exp1_SingleTask_TiTo_Subj17-24,23,300,345,z,0,LONG,1
SINGLE_TASK,Exp1_SingleTask_TiTo_Subj17-24,23,350,345,m,100,LONG,1
SINGLE_TASK,Exp1_SingleTask_TiTo_Subj17-24,23,350,345,z,100,LONG,1
SINGLE_TASK,Exp1_SingleTask_TiTo_Subj17-24,23,100,345,m,100,SHORT,1
SINGLE_TASK,Exp1_SingleTask_TiTo_Subj17-24,3,100,345,z,100,SHORT,1
SINGLE_TASK,Exp1_SingleTask_ToTi_Subj24-32,21,350,345,m,100,LONG,1
SINGLE_TASK,Exp1_SingleTask_ToTi_Subj24-32,21,150,345,z,100,SHORT,1
SINGLE_TASK,Exp1_SingleTask_ToTi_Subj24-32,31,350,345,m,100,LONG,1
DUAL_TASK,Exp1_DualTask_TiTo_Subj1-8,22,300,345,z,100,LONG,1
SINGLE_TASK,Exp1_SingleTask_TiTo_Subj17-24,2,350,346,z,0,LONG,1
SINGLE_TASK,Exp1_SingleTask_TiTo_Subj17-24,2,300,346,m,0,LONG,1
SINGLE_TASK,Exp1_SingleTask_TiTo_Subj17-24,23,150,346,m,0,SHORT,1
SINGLE_TASK,Exp1_SingleTask_ToTi_Subj24-32,21,350,346,m,0,LONG,1
SINGLE_TASK,Exp1_SingleTask_ToTi_Subj24-32,21,100,346,z,0,SHORT,1
SINGLE_TASK,Exp1_SingleTask_ToTi_Subj24-32,31,150,346,z,0,SHORT,1
SINGLE_TASK,Exp1_SingleTask_ToTi_Subj24-32,6,100,346,z,0,SHORT,1
SINGLE_TASK,Exp1_SingleTask_TiTo_Subj17-24,3,350,346,m,100,LONG,1
SINGLE_TASK,Exp1_SingleTask_ToTi_Subj24-32,21,300,346,m,100,LONG,1
SINGLE_TASK,Exp1_SingleTask_ToTi_Subj24-32,21,300,346,m,100,LONG,1
SINGLE_TASK,Exp1_SingleTask_ToTi_Subj24-32,21,300,346,m,100,LONG,1
SINGLE_TASK,Exp1_SingleTask_ToTi_Subj24-32,21,300,346,z,100,LONG,1
DUAL_TASK,Exp1_DualTask_ToTi_Subj9-16,28,150,346,m,100,SHORT,1
SINGLE_TASK,Exp1_SingleTask_TiTo_Subj17-24,23,100,347,m,0,SHORT,1
SINGLE_TASK,Exp1_SingleTask_TiTo_Subj17-24,24,150,347,m,0,SHORT,1
SINGLE_TASK,Exp1_SingleTask_ToTi_Subj24-32,21,100,347,m,0,SHORT,1
DUAL_TASK,Exp1_DualTask_ToTi_Subj9-16,28,350,347,m,0,LONG,1
SINGLE_TASK,Exp1_SingleTask_TiTo_Subj17-24,1,350,347,m,100,LONG,1
SINGLE_TASK,Exp1_SingleTask_TiTo_Subj17-24,23,350,347,m,100,LONG,1
SINGLE_TASK,Exp1_SingleTask_ToTi_Subj24-32,21,150,347,m,100,SHORT,1
SINGLE_TASK,Exp1_SingleTask_ToTi_Subj24-32,21,350,347,z,100,LONG,1
SINGLE_TASK,Exp1_SingleTask_TiTo_Subj17-24,2,350,348,m,0,LONG,1
SINGLE_TASK,Exp1_SingleTask_TiTo_Subj17-24,23,150,348,z,0,SHORT,1
SINGLE_TASK,Exp1_SingleTask_ToTi_Subj24-32,21,150,348,m,0,SHORT,1
SINGLE_TASK,Exp1_SingleTask_ToTi_Subj24-32,21,300,348,m,0,LONG,1
SINGLE_TASK,Exp1_SingleTask_ToTi_Subj24-32,21,150,348,z,0,SHORT,1
SINGLE_TASK,Exp1_SingleTask_ToTi_Subj24-32,21,150,348,z,0,SHORT,1
SINGLE_TASK,Exp1_SingleTask_ToTi_Subj24-32,21,350,348,z,0,LONG,1
SINGLE_TASK,Exp1_SingleTask_ToTi_Subj24-32,21,150,348,z,0,SHORT,1
SINGLE_TASK,Exp1_SingleTask_ToTi_Subj24-32,29,350,348,m,0,LONG,1
SINGLE_TASK,Exp1_SingleTask_TiTo_Subj17-24,23,350,348,m,100,LONG,1
SINGLE_TASK,Exp1_SingleTask_TiTo_Subj17-24,23,150,348,m,100,SHORT,1
SINGLE_TASK,Exp1_SingleTask_TiTo_Subj17-24,23,100,348,m,100,SHORT,1
SINGLE_TASK,Exp1_SingleTask_TiTo_Subj17-24,3,100,348,z,100,SHORT,1
SINGLE_TASK,Exp1_SingleTask_ToTi_Subj24-32,21,300,348,z,100,LONG,1
SINGLE_TASK,Exp1_SingleTask_ToTi_Subj24-32,31,300,348,m,100,LONG,1
SINGLE_TASK,Exp1_SingleTask_TiTo_Subj17-24,23,150,349,m,0,SHORT,1
SINGLE_TASK,Exp1_SingleTask_TiTo_Subj17-24,23,300,349,m,0,LONG,1
SINGLE_TASK,Exp1_SingleTask_TiTo_Subj17-24,23,350,349,z,0,LONG,1
SINGLE_TASK,Exp1_SingleTask_ToTi_Subj24-32,21,100,349,m,0,SHORT,1
SINGLE_TASK,Exp1_SingleTask_ToTi_Subj24-32,29,350,349,m,0,LONG,1
SINGLE_TASK,Exp1_SingleTask_ToTi_Subj24-32,31,150,349,z,0,SHORT,1
SINGLE_TASK,Exp1_SingleTask_ToTi_Subj24-32,31,100,349,z,100,SHORT,1
SINGLE_TASK,Exp1_SingleTask_ToTi_Subj24-32,21,100,350,m,0,SHORT,1
SINGLE_TASK,Exp1_SingleTask_ToTi_Subj24-32,29,350,350,m,0,LONG,1
SINGLE_TASK,Exp1_SingleTask_ToTi_Subj24-32,7,100,350,m,0,SHORT,1
DUAL_TASK,Exp1_DualTask_TiTo_Subj1-8,10,300,350,m,0,LONG,1
SINGLE_TASK,Exp1_SingleTask_TiTo_Subj17-24,23,150,350,m,100,SHORT,1
SINGLE_TASK,Exp1_SingleTask_TiTo_Subj17-24,23,150,350,z,100,SHORT,1
SINGLE_TASK,Exp1_SingleTask_ToTi_Subj24-32,21,350,350,m,100,LONG,1
SINGLE_TASK,Exp1_SingleTask_ToTi_Subj24-32,21,150,350,m,100,SHORT,1
SINGLE_TASK,Exp1_SingleTask_ToTi_Subj24-32,21,350,350,m,100,LONG,1
DUAL_TASK,Exp1_DualTask_ToTi_Subj9-16,28,350,350,z,100,LONG,1
SINGLE_TASK,Exp1_SingleTask_TiTo_Subj17-24,2,350,351,m,0,LONG,1
SINGLE_TASK,Exp1_SingleTask_TiTo_Subj17-24,23,300,351,m,0,LONG,1
SINGLE_TASK,Exp1_SingleTask_TiTo_Subj17-24,23,150,351,z,0,SHORT,1
SINGLE_TASK,Exp1_SingleTask_TiTo_Subj17-24,3,100,351,m,0,SHORT,1
SINGLE_TASK,Exp1_SingleTask_ToTi_Subj24-32,21,150,351,m,0,SHORT,1
SINGLE_TASK,Exp1_SingleTask_ToTi_Subj24-32,21,150,351,z,0,SHORT,1
SINGLE_TASK,Exp1_SingleTask_ToTi_Subj24-32,21,300,351,m,0,LONG,1
SINGLE_TASK,Exp1_SingleTask_ToTi_Subj24-32,21,150,351,m,0,SHORT,1
SINGLE_TASK,Exp1_SingleTask_ToTi_Subj24-32,29,300,351,z,0,LONG,1
DUAL_TASK,Exp1_DualTask_ToTi_Subj9-16,16,300,351,m,0,LONG,1
DUAL_TASK,Exp1_DualTask_ToTi_Subj9-16,28,350,351,z,0,LONG,1
SINGLE_TASK,Exp1_SingleTask_ToTi_Subj24-32,21,350,351,z,100,LONG,1
SINGLE_TASK,Exp1_SingleTask_ToTi_Subj24-32,21,100,351,m,100,SHORT,1
SINGLE_TASK,Exp1_SingleTask_TiTo_Subj17-24,23,300,352,m,0,LONG,1
SINGLE_TASK,Exp1_SingleTask_ToTi_Subj24-32,21,100,352,m,0,SHORT,1
SINGLE_TASK,Exp1_SingleTask_ToTi_Subj24-32,21,300,352,z,0,LONG,1
SINGLE_TASK,Exp1_SingleTask_ToTi_Subj24-32,21,300,352,z,0,LONG,1
SINGLE_TASK,Exp1_SingleTask_TiTo_Subj17-24,2,300,352,m,100,LONG,1
SINGLE_TASK,Exp1_SingleTask_TiTo_Subj17-24,23,100,352,z,100,SHORT,1
SINGLE_TASK,Exp1_SingleTask_TiTo_Subj17-24,23,150,352,m,100,SHORT,1
SINGLE_TASK,Exp1_SingleTask_TiTo_Subj17-24,23,150,353,z,0,SHORT,1
SINGLE_TASK,Exp1_SingleTask_TiTo_Subj17-24,3,150,353,z,0,SHORT,1
SINGLE_TASK,Exp1_SingleTask_ToTi_Subj24-32,21,350,353,z,0,LONG,1
SINGLE_TASK,Exp1_SingleTask_ToTi_Subj24-32,21,300,353,m,0,LONG,1
SINGLE_TASK,Exp1_SingleTask_ToTi_Subj24-32,21,350,353,z,0,LONG,1
SINGLE_TASK,Exp1_SingleTask_ToTi_Subj24-32,21,300,353,z,0,LONG,1
DUAL_TASK,Exp1_DualTask_ToTi_Subj9-16,28,100,353,m,0,SHORT,1
SINGLE_TASK,Exp1_SingleTask_TiTo_Subj17-24,23,300,353,m,100,LONG,1
SINGLE_TASK,Exp1_SingleTask_TiTo_Subj17-24,23,150,353,m,100,SHORT,1
SINGLE_TASK,Exp1_SingleTask_TiTo_Subj17-24,3,300,353,z,100,LONG,1
SINGLE_TASK,Exp1_SingleTask_ToTi_Subj24-32,21,300,353,m,100,LONG,1
SINGLE_TASK,Exp1_SingleTask_ToTi_Subj24-32,21,100,353,m,100,SHORT,1
SINGLE_TASK,Exp1_SingleTask_ToTi_Subj24-32,21,350,353,z,100,LONG,1
SINGLE_TASK,Exp1_SingleTask_ToTi_Subj24-32,21,150,353,z,100,SHORT,1
SINGLE_TASK,Exp1_SingleTask_ToTi_Subj24-32,31,300,353,z,100,LONG,1
SINGLE_TASK,Exp1_SingleTask_TiTo_Subj17-24,23,100,354,z,0,SHORT,1
SINGLE_TASK,Exp1_SingleTask_ToTi_Subj24-32,21,150,354,z,0,SHORT,1
SINGLE_TASK,Exp1_SingleTask_ToTi_Subj24-32,21,100,354,z,0,SHORT,1
SINGLE_TASK,Exp1_SingleTask_ToTi_Subj24-32,21,100,354,z,0,SHORT,1
SINGLE_TASK,Exp1_SingleTask_ToTi_Subj24-32,21,300,354,z,0,LONG,1
SINGLE_TASK,Exp1_SingleTask_ToTi_Subj24-32,21,300,354,m,0,LONG,1
SINGLE_TASK,Exp1_SingleTask_ToTi_Subj24-32,31,150,354,z,0,SHORT,1
SINGLE_TASK,Exp1_SingleTask_ToTi_Subj24-32,31,150,354,m,0,SHORT,1
DUAL_TASK,Exp1_DualTask_ToTi_Subj9-16,16,350,354,z,0,LONG,1
DUAL_TASK,Exp1_DualTask_TiTo_Subj1-8,22,350,354,m,0,LONG,1
SINGLE_TASK,Exp1_SingleTask_TiTo_Subj17-24,24,300,354,z,100,LONG,1
SINGLE_TASK,Exp1_SingleTask_ToTi_Subj24-32,21,300,354,m,100,LONG,1
SINGLE_TASK,Exp1_SingleTask_ToTi_Subj24-32,31,350,354,z,100,LONG,1
SINGLE_TASK,Exp1_SingleTask_TiTo_Subj17-24,2,300,355,m,0,LONG,1
SINGLE_TASK,Exp1_SingleTask_ToTi_Subj24-32,21,100,355,z,0,SHORT,1
SINGLE_TASK,Exp1_SingleTask_ToTi_Subj24-32,21,150,355,z,0,SHORT,1
SINGLE_TASK,Exp1_SingleTask_ToTi_Subj24-32,21,300,355,m,0,LONG,1
SINGLE_TASK,Exp1_SingleTask_ToTi_Subj24-32,7,350,355,m,0,LONG,1
SINGLE_TASK,Exp1_SingleTask_ToTi_Subj24-32,31,150,355,m,100,SHORT,1
DUAL_TASK,Exp1_DualTask_TiTo_Subj1-8,13,300,355,z,100,LONG,1
DUAL_TASK,Exp1_DualTask_ToTi_Subj9-16,28,150,355,z,100,SHORT,1
SINGLE_TASK,Exp1_SingleTask_ToTi_Subj24-32,21,100,356,z,0,SHORT,1
SINGLE_TASK,Exp1_SingleTask_ToTi_Subj24-32,21,100,356,m,0,SHORT,1
SINGLE_TASK,Exp1_SingleTask_ToTi_Subj24-32,21,300,356,m,0,LONG,1
SINGLE_TASK,Exp1_SingleTask_TiTo_Subj17-24,23,350,356,m,100,LONG,1
SINGLE_TASK,Exp1_SingleTask_TiTo_Subj17-24,23,100,356,m,100,SHORT,1
SINGLE_TASK,Exp1_SingleTask_ToTi_Subj24-32,21,350,356,m,100,LONG,1
SINGLE_TASK,Exp1_SingleTask_ToTi_Subj24-32,21,100,356,z,100,SHORT,1
SINGLE_TASK,Exp1_SingleTask_TiTo_Subj17-24,20,300,357,z,0,LONG,1
SINGLE_TASK,Exp1_SingleTask_TiTo_Subj17-24,23,150,357,m,0,SHORT,1
SINGLE_TASK,Exp1_SingleTask_TiTo_Subj17-24,23,300,357,z,0,LONG,1
SINGLE_TASK,Exp1_SingleTask_ToTi_Subj24-32,21,100,357,z,0,SHORT,1
SINGLE_TASK,Exp1_SingleTask_TiTo_Subj17-24,23,150,357,m,100,SHORT,1
SINGLE_TASK,Exp1_SingleTask_ToTi_Subj24-32,21,350,357,z,100,LONG,1
SINGLE_TASK,Exp1_SingleTask_ToTi_Subj24-32,21,300,357,m,100,LONG,1
DUAL_TASK,Exp1_DualTask_ToTi_Subj9-16,18,300,357,m,100,LONG,1
DUAL_TASK,Exp1_DualTask_ToTi_Subj9-16,28,150,357,z,100,SHORT,1
DUAL_TASK,Exp1_DualTask_ToTi_Subj9-16,28,350,357,z,100,LONG,1
SINGLE_TASK,Exp1_SingleTask_TiTo_Subj17-24,20,150,358,z,0,SHORT,1
SINGLE_TASK,Exp1_SingleTask_TiTo_Subj17-24,23,350,358,m,0,LONG,1
SINGLE_TASK,Exp1_SingleTask_ToTi_Subj24-32,21,350,358,m,0,LONG,1
SINGLE_TASK,Exp1_SingleTask_ToTi_Subj24-32,29,350,358,z,0,LONG,1
SINGLE_TASK,Exp1_SingleTask_ToTi_Subj24-32,31,150,358,m,0,SHORT,1
SINGLE_TASK,Exp1_SingleTask_ToTi_Subj24-32,31,150,358,z,0,SHORT,1
SINGLE_TASK,Exp1_SingleTask_TiTo_Subj17-24,23,350,358,m,100,LONG,1
SINGLE_TASK,Exp1_SingleTask_TiTo_Subj17-24,23,100,358,m,100,SHORT,1
SINGLE_TASK,Exp1_SingleTask_TiTo_Subj17-24,23,150,358,z,100,SHORT,1
SINGLE_TASK,Exp1_SingleTask_TiTo_Subj17-24,23,100,358,z,100,SHORT,1
SINGLE_TASK,Exp1_SingleTask_TiTo_Subj17-24,4,350,358,m,100,LONG,1
SINGLE_TASK,Exp1_SingleTask_ToTi_Subj24-32,21,150,358,z,100,SHORT,1
SINGLE_TASK,Exp1_SingleTask_ToTi_Subj24-32,21,350,358,m,100,LONG,1
SINGLE_TASK,Exp1_SingleTask_ToTi_Subj24-32,29,300,358,z,100,LONG,1
SINGLE_TASK,Exp1_SingleTask_ToTi_Subj24-32,29,300,358,m,100,LONG,1
SINGLE_TASK,Exp1_SingleTask_ToTi_Subj24-32,29,350,358,z,100,LONG,1
SINGLE_TASK,Exp1_SingleTask_TiTo_Subj17-24,2,300,359,m,0,LONG,1
SINGLE_TASK,Exp1_SingleTask_TiTo_Subj17-24,20,300,359,m,0,LONG,1
SINGLE_TASK,Exp1_SingleTask_TiTo_Subj17-24,23,100,359,z,0,SHORT,1
SINGLE_TASK,Exp1_SingleTask_TiTo_Subj17-24,3,100,359,z,0,SHORT,1
SINGLE_TASK,Exp1_SingleTask_ToTi_Subj24-32,21,350,359,m,0,LONG,1
SINGLE_TASK,Exp1_SingleTask_ToTi_Subj24-32,21,300,359,m,0,LONG,1
SINGLE_TASK,Exp1_SingleTask_ToTi_Subj24-32,29,150,359,m,0,SHORT,1
SINGLE_TASK,Exp1_SingleTask_ToTi_Subj24-32,31,300,359,z,0,LONG,1
SINGLE_TASK,Exp1_SingleTask_ToTi_Subj24-32,31,300,359,m,0,LONG,1
SINGLE_TASK,Exp1_SingleTask_TiTo_Subj17-24,2,300,359,z,100,LONG,1
SINGLE_TASK,Exp1_SingleTask_TiTo_Subj17-24,23,350,359,m,100,LONG,1
SINGLE_TASK,Exp1_SingleTask_ToTi_Subj24-32,21,100,359,m,100,SHORT,1
SINGLE_TASK,Exp1_SingleTask_ToTi_Subj24-32,21,350,359,z,100,LONG,1
SINGLE_TASK,Exp1_SingleTask_ToTi_Subj24-32,21,100,359,m,100,SHORT,1
SINGLE_TASK,Exp1_SingleTask_ToTi_Subj24-32,21,350,359,m,100,LONG,1
SINGLE_TASK,Exp1_SingleTask_TiTo_Subj17-24,23,150,360,z,0,SHORT,1
SINGLE_TASK,Exp1_SingleTask_ToTi_Subj24-32,21,350,360,z,0,LONG,1
SINGLE_TASK,Exp1_SingleTask_ToTi_Subj24-32,29,150,360,m,0,SHORT,1
SINGLE_TASK,Exp1_SingleTask_ToTi_Subj24-32,29,300,360,m,0,LONG,1
SINGLE_TASK,Exp1_SingleTask_ToTi_Subj24-32,6,350,360,z,0,LONG,1
SINGLE_TASK,Exp1_SingleTask_ToTi_Subj24-32,21,350,360,m,100,LONG,1
SINGLE_TASK,Exp1_SingleTask_ToTi_Subj24-32,21,350,360,z,100,LONG,1
SINGLE_TASK,Exp1_SingleTask_ToTi_Subj24-32,29,350,360,z,100,LONG,1
SINGLE_TASK,Exp1_SingleTask_ToTi_Subj24-32,31,300,360,z,100,LONG,1
SINGLE_TASK,Exp1_SingleTask_TiTo_Subj17-24,20,350,361,m,0,LONG,1
SINGLE_TASK,Exp1_SingleTask_TiTo_Subj17-24,23,150,361,z,0,SHORT,1
SINGLE_TASK,Exp1_SingleTask_TiTo_Subj17-24,23,100,361,z,0,SHORT,1
SINGLE_TASK,Exp1_SingleTask_TiTo_Subj17-24,23,100,361,m,0,SHORT,1
SINGLE_TASK,Exp1_SingleTask_TiTo_Subj17-24,23,150,361,m,0,SHORT,1
SINGLE_TASK,Exp1_SingleTask_ToTi_Subj24-32,21,350,361,m,0,LONG,1
SINGLE_TASK,Exp1_SingleTask_ToTi_Subj24-32,6,100,361,m,0,SHORT,1
SINGLE_TASK,Exp1_SingleTask_TiTo_Subj17-24,1,150,361,z,100,SHORT,1
SINGLE_TASK,Exp1_SingleTask_ToTi_Subj24-32,29,100,361,m,100,SHORT,1
SINGLE_TASK,Exp1_SingleTask_ToTi_Subj24-32,31,350,361,z,100,LONG,1
SINGLE_TASK,Exp1_SingleTask_ToTi_Subj24-32,31,350,361,z,100,LONG,1
DUAL_TASK,Exp1_DualTask_ToTi_Subj9-16,28,300,361,m,100,LONG,1
SINGLE_TASK,Exp1_SingleTask_TiTo_Subj17-24,2,300,362,m,0,LONG,1
SINGLE_TASK,Exp1_SingleTask_TiTo_Subj17-24,23,150,362,z,0,SHORT,1
SINGLE_TASK,Exp1_SingleTask_TiTo_Subj17-24,23,150,362,m,0,SHORT,1
SINGLE_TASK,Exp1_SingleTask_TiTo_Subj17-24,23,150,362,z,0,SHORT,1
SINGLE_TASK,Exp1_SingleTask_TiTo_Subj17-24,23,150,362,m,0,SHORT,1
SINGLE_TASK,Exp1_SingleTask_ToTi_Subj24-32,21,150,362,m,0,SHORT,1
SINGLE_TASK,Exp1_SingleTask_ToTi_Subj24-32,21,100,362,m,0,SHORT,1
SINGLE_TASK,Exp1_SingleTask_ToTi_Subj24-32,29,350,362,z,0,LONG,1
SINGLE_TASK,Exp1_SingleTask_ToTi_Subj24-32,31,100,362,m,0,SHORT,1
SINGLE_TASK,Exp1_SingleTask_TiTo_Subj17-24,23,300,362,z,100,LONG,1
SINGLE_TASK,Exp1_SingleTask_TiTo_Subj17-24,23,350,362,m,100,LONG,1
SINGLE_TASK,Exp1_SingleTask_ToTi_Subj24-32,21,350,362,z,100,LONG,1
DUAL_TASK,Exp1_DualTask_TiTo_Subj1-8,13,300,362,z,100,LONG,1
SINGLE_TASK,Exp1_SingleTask_TiTo_Subj17-24,2,300,363,m,0,LONG,1
SINGLE_TASK,Exp1_SingleTask_TiTo_Subj17-24,23,350,363,m,0,LONG,1
SINGLE_TASK,Exp1_SingleTask_TiTo_Subj17-24,23,150,363,z,0,SHORT,1
SINGLE_TASK,Exp1_SingleTask_ToTi_Subj24-32,21,350,363,z,0,LONG,1
SINGLE_TASK,Exp1_SingleTask_ToTi_Subj24-32,21,150,363,m,0,SHORT,1
SINGLE_TASK,Exp1_SingleTask_ToTi_Subj24-32,21,100,363,m,0,SHORT,1
SINGLE_TASK,Exp1_SingleTask_ToTi_Subj24-32,21,350,363,z,0,LONG,1
SINGLE_TASK,Exp1_SingleTask_ToTi_Subj24-32,21,350,363,z,0,LONG,1
SINGLE_TASK,Exp1_SingleTask_ToTi_Subj24-32,6,300,363,z,0,LONG,1
SINGLE_TASK,Exp1_SingleTask_TiTo_Subj17-24,23,350,363,m,100,LONG,1
SINGLE_TASK,Exp1_SingleTask_TiTo_Subj17-24,23,100,363,m,100,SHORT,1
SINGLE_TASK,Exp1_SingleTask_TiTo_Subj17-24,23,150,363,z,100,SHORT,1
SINGLE_TASK,Exp1_SingleTask_ToTi_Subj24-32,21,350,363,z,100,LONG,1
SINGLE_TASK,Exp1_SingleTask_ToTi_Subj24-32,21,350,363,z,100,LONG,1
SINGLE_TASK,Exp1_SingleTask_ToTi_Subj24-32,21,100,363,m,100,SHORT,1
SINGLE_TASK,Exp1_SingleTask_ToTi_Subj24-32,21,100,363,m,100,SHORT,1
SINGLE_TASK,Exp1_SingleTask_ToTi_Subj24-32,21,350,363,z,100,LONG,1
SINGLE_TASK,Exp1_SingleTask_ToTi_Subj24-32,21,100,363,z,100,SHORT,1
SINGLE_TASK,Exp1_SingleTask_ToTi_Subj24-32,21,100,363,m,100,SHORT,1
SINGLE_TASK,Exp1_SingleTask_TiTo_Subj17-24,2,300,364,m,0,LONG,1
SINGLE_TASK,Exp1_SingleTask_TiTo_Subj17-24,23,300,364,z,0,LONG,1
SINGLE_TASK,Exp1_SingleTask_TiTo_Subj17-24,23,350,364,m,0,LONG,1
SINGLE_TASK,Exp1_SingleTask_ToTi_Subj24-32,21,100,364,m,0,SHORT,1
SINGLE_TASK,Exp1_SingleTask_ToTi_Subj24-32,29,350,364,m,0,LONG,1
SINGLE_TASK,Exp1_SingleTask_ToTi_Subj24-32,29,300,364,m,0,LONG,1
SINGLE_TASK,Exp1_SingleTask_ToTi_Subj24-32,31,100,364,z,0,SHORT,1
SINGLE_TASK,Exp1_SingleTask_ToTi_Subj24-32,31,150,364,m,0,SHORT,1
SINGLE_TASK,Exp1_SingleTask_TiTo_Subj17-24,23,300,364,m,100,LONG,1
SINGLE_TASK,Exp1_SingleTask_TiTo_Subj17-24,3,100,364,m,100,SHORT,1
SINGLE_TASK,Exp1_SingleTask_ToTi_Subj24-32,21,100,364,z,100,SHORT,1
SINGLE_TASK,Exp1_SingleTask_TiTo_Subj17-24,2,300,365,m,0,LONG,1
SINGLE_TASK,Exp1_SingleTask_TiTo_Subj17-24,2,300,365,m,0,LONG,1
SINGLE_TASK,Exp1_SingleTask_TiTo_Subj17-24,2,300,365,m,0,LONG,1
SINGLE_TASK,Exp1_SingleTask_TiTo_Subj17-24,2,350,365,z,0,LONG,1
SINGLE_TASK,Exp1_SingleTask_TiTo_Subj17-24,23,350,365,z,0,LONG,1
SINGLE_TASK,Exp1_SingleTask_TiTo_Subj17-24,23,300,365,z,0,LONG,1
SINGLE_TASK,Exp1_SingleTask_ToTi_Subj24-32,21,100,365,m,0,SHORT,1
SINGLE_TASK,Exp1_SingleTask_ToTi_Subj24-32,21,150,365,z,0,SHORT,1
SINGLE_TASK,Exp1_SingleTask_ToTi_Subj24-32,29,300,365,z,0,LONG,1
SINGLE_TASK,Exp1_SingleTask_TiTo_Subj17-24,1,300,365,z,100,LONG,1
SINGLE_TASK,Exp1_SingleTask_TiTo_Subj17-24,2,350,365,m,100,LONG,1
SINGLE_TASK,Exp1_SingleTask_TiTo_Subj17-24,23,300,365,m,100,LONG,1
SINGLE_TASK,Exp1_SingleTask_ToTi_Subj24-32,21,100,365,z,100,SHORT,1
SINGLE_TASK,Exp1_SingleTask_TiTo_Subj17-24,23,300,366,m,0,LONG,1
SINGLE_TASK,Exp1_SingleTask_TiTo_Subj17-24,23,300,366,m,0,LONG,1
SINGLE_TASK,Exp1_SingleTask_TiTo_Subj17-24,23,100,366,m,0,SHORT,1
SINGLE_TASK,Exp1_SingleTask_TiTo_Subj17-24,23,150,366,m,0,SHORT,1
SINGLE_TASK,Exp1_SingleTask_ToTi_Subj24-32,21,150,366,z,0,SHORT,1
SINGLE_TASK,Exp1_SingleTask_ToTi_Subj24-32,21,100,366,m,0,SHORT,1
SINGLE_TASK,Exp1_SingleTask_ToTi_Subj24-32,21,150,366,m,0,SHORT,1
SINGLE_TASK,Exp1_SingleTask_ToTi_Subj24-32,29,300,366,m,0,LONG,1
SINGLE_TASK,Exp1_SingleTask_ToTi_Subj24-32,31,350,366,z,0,LONG,1
SINGLE_TASK,Exp1_SingleTask_ToTi_Subj24-32,6,350,366,m,0,LONG,1
SINGLE_TASK,Exp1_SingleTask_ToTi_Subj24-32,7,300,366,m,0,LONG,1
SINGLE_TASK,Exp1_SingleTask_TiTo_Subj17-24,23,100,366,m,100,SHORT,1
SINGLE_TASK,Exp1_SingleTask_TiTo_Subj17-24,23,100,366,z,100,SHORT,1
SINGLE_TASK,Exp1_SingleTask_TiTo_Subj17-24,23,100,366,z,100,SHORT,1
SINGLE_TASK,Exp1_SingleTask_TiTo_Subj17-24,23,100,366,z,100,SHORT,1
SINGLE_TASK,Exp1_SingleTask_ToTi_Subj24-32,21,150,366,m,100,SHORT,1
SINGLE_TASK,Exp1_SingleTask_ToTi_Subj24-32,21,300,366,z,100,LONG,1
SINGLE_TASK,Exp1_SingleTask_ToTi_Subj24-32,21,300,366,z,100,LONG,1
SINGLE_TASK,Exp1_SingleTask_ToTi_Subj24-32,31,350,366,m,100,LONG,1
DUAL_TASK,Exp1_DualTask_TiTo_Subj1-8,32,100,366,m,100,SHORT,1
SINGLE_TASK,Exp1_SingleTask_TiTo_Subj17-24,2,300,367,m,0,LONG,1
SINGLE_TASK,Exp1_SingleTask_TiTo_Subj17-24,2,350,367,m,0,LONG,1
SINGLE_TASK,Exp1_SingleTask_TiTo_Subj17-24,23,350,367,z,0,LONG,1
SINGLE_TASK,Exp1_SingleTask_TiTo_Subj17-24,3,100,367,m,0,SHORT,1
SINGLE_TASK,Exp1_SingleTask_ToTi_Subj24-32,21,350,367,m,0,LONG,1
DUAL_TASK,Exp1_DualTask_TiTo_Subj1-8,22,150,367,z,0,SHORT,1
DUAL_TASK,Exp1_DualTask_ToTi_Subj9-16,28,350,367,m,0,LONG,1
SINGLE_TASK,Exp1_SingleTask_TiTo_Subj17-24,23,350,367,z,100,LONG,1
SINGLE_TASK,Exp1_SingleTask_ToTi_Subj24-32,21,100,367,z,100,SHORT,1
SINGLE_TASK,Exp1_SingleTask_ToTi_Subj24-32,21,300,367,m,100,LONG,1
SINGLE_TASK,Exp1_SingleTask_ToTi_Subj24-32,21,150,367,z,100,SHORT,1
SINGLE_TASK,Exp1_SingleTask_ToTi_Subj24-32,31,150,367,m,100,SHORT,1
SINGLE_TASK,Exp1_SingleTask_TiTo_Subj17-24,2,300,368,z,0,LONG,1
SINGLE_TASK,Exp1_SingleTask_TiTo_Subj17-24,23,350,368,m,0,LONG,1
SINGLE_TASK,Exp1_SingleTask_TiTo_Subj17-24,23,350,368,z,0,LONG,1
SINGLE_TASK,Exp1_SingleTask_TiTo_Subj17-24,3,350,368,z,0,LONG,1
SINGLE_TASK,Exp1_SingleTask_ToTi_Subj24-32,29,100,368,z,0,SHORT,1
SINGLE_TASK,Exp1_SingleTask_ToTi_Subj24-32,29,300,368,z,0,LONG,1
SINGLE_TASK,Exp1_SingleTask_ToTi_Subj24-32,6,150,368,m,0,SHORT,1
SINGLE_TASK,Exp1_SingleTask_TiTo_Subj17-24,3,350,368,m,100,LONG,1
SINGLE_TASK,Exp1_SingleTask_ToTi_Subj24-32,21,350,368,m,100,LONG,1
SINGLE_TASK,Exp1_SingleTask_ToTi_Subj24-32,21,100,368,m,100,SHORT,1
DUAL_TASK,Exp1_DualTask_ToTi_Subj9-16,28,150,368,m,100,SHORT,1
SINGLE_TASK,Exp1_SingleTask_TiTo_Subj17-24,23,300,369,z,0,LONG,1
SINGLE_TASK,Exp1_SingleTask_ToTi_Subj24-32,21,100,369,z,0,SHORT,1
SINGLE_TASK,Exp1_SingleTask_ToTi_Subj24-32,21,150,369,m,0,SHORT,1
SINGLE_TASK,Exp1_SingleTask_ToTi_Subj24-32,29,100,369,z,0,SHORT,1
DUAL_TASK,Exp1_DualTask_ToTi_Subj9-16,16,300,369,m,0,LONG,1
DUAL_TASK,Exp1_DualTask_TiTo_Subj1-8,22,300,369,m,0,LONG,1
DUAL_TASK,Exp1_DualTask_ToTi_Subj9-16,28,100,369,m,0,SHORT,1
SINGLE_TASK,Exp1_SingleTask_TiTo_Subj17-24,23,100,369,m,100,SHORT,1
SINGLE_TASK,Exp1_SingleTask_TiTo_Subj17-24,23,350,369,z,100,LONG,1
SINGLE_TASK,Exp1_SingleTask_ToTi_Subj24-32,31,300,369,m,100,LONG,1
SINGLE_TASK,Exp1_SingleTask_TiTo_Subj17-24,23,150,370,z,0,SHORT,1
SINGLE_TASK,Exp1_SingleTask_ToTi_Subj24-32,21,100,370,z,0,SHORT,1
SINGLE_TASK,Exp1_SingleTask_ToTi_Subj24-32,21,300,370,z,0,LONG,1
SINGLE_TASK,Exp1_SingleTask_ToTi_Subj24-32,21,300,370,z,0,LONG,1
SINGLE_TASK,Exp1_SingleTask_ToTi_Subj24-32,21,100,370,z,0,SHORT,1
SINGLE_TASK,Exp1_SingleTask_ToTi_Subj24-32,21,100,370,m,0,SHORT,1
SINGLE_TASK,Exp1_SingleTask_ToTi_Subj24-32,21,350,370,m,0,LONG,1
SINGLE_TASK,Exp1_SingleTask_ToTi_Subj24-32,21,100,370,z,0,SHORT,1
SINGLE_TASK,Exp1_SingleTask_ToTi_Subj24-32,29,100,370,z,0,SHORT,1
SINGLE_TASK,Exp1_SingleTask_ToTi_Subj24-32,31,350,370,m,0,LONG,1
SINGLE_TASK,Exp1_SingleTask_TiTo_Subj17-24,20,300,370,m,100,LONG,1
SINGLE_TASK,Exp1_SingleTask_TiTo_Subj17-24,23,100,370,m,100,SHORT,1
SINGLE_TASK,Exp1_SingleTask_TiTo_Subj17-24,23,100,370,m,100,SHORT,1
SINGLE_TASK,Exp1_SingleTask_TiTo_Subj17-24,23,300,370,z,100,LONG,1
SINGLE_TASK,Exp1_SingleTask_TiTo_Subj17-24,23,100,370,m,100,SHORT,1
SINGLE_TASK,Exp1_SingleTask_TiTo_Subj17-24,3,100,370,m,100,SHORT,1
SINGLE_TASK,Exp1_SingleTask_ToTi_Subj24-32,29,350,370,z,100,LONG,1
SINGLE_TASK,Exp1_SingleTask_ToTi_Subj24-32,6,300,370,m,100,LONG,1
SINGLE_TASK,Exp1_SingleTask_TiTo_Subj17-24,2,350,371,m,0,LONG,1
SINGLE_TASK,Exp1_SingleTask_TiTo_Subj17-24,23,100,371,z,0,SHORT,1
SINGLE_TASK,Exp1_SingleTask_TiTo_Subj17-24,23,350,371,m,0,LONG,1
SINGLE_TASK,Exp1_SingleTask_TiTo_Subj17-24,24,100,371,z,0,SHORT,1
SINGLE_TASK,Exp1_SingleTask_ToTi_Subj24-32,21,350,371,m,0,LONG,1
SINGLE_TASK,Exp1_SingleTask_ToTi_Subj24-32,21,300,371,z,0,LONG,1
SINGLE_TASK,Exp1_SingleTask_ToTi_Subj24-32,21,150,371,z,0,SHORT,1
SINGLE_TASK,Exp1_SingleTask_ToTi_Subj24-32,31,150,371,m,0,SHORT,1
SINGLE_TASK,Exp1_SingleTask_TiTo_Subj17-24,23,300,371,m,100,LONG,1
SINGLE_TASK,Exp1_SingleTask_TiTo_Subj17-24,23,150,371,z,100,SHORT,1
SINGLE_TASK,Exp1_SingleTask_TiTo_Subj17-24,23,150,371,z,100,SHORT,1
SINGLE_TASK,Exp1_SingleTask_ToTi_Subj24-32,21,150,371,m,100,SHORT,1
SINGLE_TASK,Exp1_SingleTask_ToTi_Subj24-32,21,150,371,m,100,SHORT,1
SINGLE_TASK,Exp1_SingleTask_ToTi_Subj24-32,21,150,371,m,100,SHORT,1
SINGLE_TASK,Exp1_SingleTask_ToTi_Subj24-32,21,350,371,z,100,LONG,1
SINGLE_TASK,Exp1_SingleTask_ToTi_Subj24-32,31,100,371,z,100,SHORT,1
SINGLE_TASK,Exp1_SingleTask_TiTo_Subj17-24,2,300,372,m,0,LONG,1
SINGLE_TASK,Exp1_SingleTask_ToTi_Subj24-32,21,350,372,m,0,LONG,1
SINGLE_TASK,Exp1_SingleTask_ToTi_Subj24-32,21,150,372,m,0,SHORT,1
SINGLE_TASK,Exp1_SingleTask_ToTi_Subj24-32,25,100,372,m,0,SHORT,1
SINGLE_TASK,Exp1_SingleTask_ToTi_Subj24-32,31,100,372,m,100,SHORT,1
SINGLE_TASK,Exp1_SingleTask_TiTo_Subj17-24,1,350,373,z,0,LONG,1
SINGLE_TASK,Exp1_SingleTask_TiTo_Subj17-24,23,100,373,m,0,SHORT,1
SINGLE_TASK,Exp1_SingleTask_TiTo_Subj17-24,23,300,373,m,0,LONG,1
SINGLE_TASK,Exp1_SingleTask_TiTo_Subj17-24,23,300,373,m,0,LONG,1
SINGLE_TASK,Exp1_SingleTask_ToTi_Subj24-32,21,300,373,m,0,LONG,1
SINGLE_TASK,Exp1_SingleTask_ToTi_Subj24-32,21,100,373,m,0,SHORT,1
SINGLE_TASK,Exp1_SingleTask_ToTi_Subj24-32,29,150,373,m,0,SHORT,1
SINGLE_TASK,Exp1_SingleTask_ToTi_Subj24-32,29,300,373,z,0,LONG,1
DUAL_TASK,Exp1_DualTask_ToTi_Subj9-16,28,350,373,z,0,LONG,1
SINGLE_TASK,Exp1_SingleTask_TiTo_Subj17-24,2,350,373,m,100,LONG,1
SINGLE_TASK,Exp1_SingleTask_TiTo_Subj17-24,20,300,373,m,100,LONG,1
SINGLE_TASK,Exp1_SingleTask_TiTo_Subj17-24,23,350,373,z,100,LONG,1
SINGLE_TASK,Exp1_SingleTask_TiTo_Subj17-24,23,100,373,z,100,SHORT,1
SINGLE_TASK,Exp1_SingleTask_ToTi_Subj24-32,21,300,373,m,100,LONG,1
SINGLE_TASK,Exp1_SingleTask_ToTi_Subj24-32,21,150,373,m,100,SHORT,1
SINGLE_TASK,Exp1_SingleTask_ToTi_Subj24-32,31,350,373,m,100,LONG,1
SINGLE_TASK,Exp1_SingleTask_ToTi_Subj24-32,31,100,373,z,100,SHORT,1
SINGLE_TASK,Exp1_SingleTask_ToTi_Subj24-32,6,300,373,z,100,LONG,1
DUAL_TASK,Exp1_DualTask_ToTi_Subj9-16,28,100,373,m,100,SHORT,1
SINGLE_TASK,Exp1_SingleTask_TiTo_Subj17-24,2,300,374,m,0,LONG,1
SINGLE_TASK,Exp1_SingleTask_TiTo_Subj17-24,3,150,374,m,0,SHORT,1
SINGLE_TASK,Exp1_SingleTask_ToTi_Subj24-32,21,150,374,z,0,SHORT,1
SINGLE_TASK,Exp1_SingleTask_ToTi_Subj24-32,21,350,374,m,0,LONG,1
SINGLE_TASK,Exp1_SingleTask_ToTi_Subj24-32,29,350,374,m,0,LONG,1
DUAL_TASK,Exp1_DualTask_TiTo_Subj1-8,32,350,374,z,0,LONG,1
SINGLE_TASK,Exp1_SingleTask_TiTo_Subj17-24,1,100,374,z,100,SHORT,1
SINGLE_TASK,Exp1_SingleTask_TiTo_Subj17-24,23,150,374,m,100,SHORT,1
SINGLE_TASK,Exp1_SingleTask_ToTi_Subj24-32,21,150,374,z,100,SHORT,1
SINGLE_TASK,Exp1_SingleTask_TiTo_Subj17-24,23,100,375,m,0,SHORT,1
SINGLE_TASK,Exp1_SingleTask_TiTo_Subj17-24,23,350,375,m,0,LONG,1
SINGLE_TASK,Exp1_SingleTask_TiTo_Subj17-24,23,300,375,m,0,LONG,1
SINGLE_TASK,Exp1_SingleTask_ToTi_Subj24-32,21,350,375,z,0,LONG,1
SINGLE_TASK,Exp1_SingleTask_ToTi_Subj24-32,21,150,375,m,0,SHORT,1
SINGLE_TASK,Exp1_SingleTask_ToTi_Subj24-32,29,350,375,z,0,LONG,1
SINGLE_TASK,Exp1_SingleTask_ToTi_Subj24-32,7,350,375,z,0,LONG,1
SINGLE_TASK,Exp1_SingleTask_TiTo_Subj17-24,23,100,375,m,100,SHORT,1
SINGLE_TASK,Exp1_SingleTask_TiTo_Subj17-24,23,150,375,m,100,SHORT,1
SINGLE_TASK,Exp1_SingleTask_TiTo_Subj17-24,23,100,375,z,100,SHORT,1
SINGLE_TASK,Exp1_SingleTask_TiTo_Subj17-24,23,100,375,z,100,SHORT,1
SINGLE_TASK,Exp1_SingleTask_ToTi_Subj24-32,21,150,375,z,100,SHORT,1
SINGLE_TASK,Exp1_SingleTask_ToTi_Subj24-32,21,150,375,z,100,SHORT,1
SINGLE_TASK,Exp1_SingleTask_ToTi_Subj24-32,31,300,375,m,100,LONG,1
SINGLE_TASK,Exp1_SingleTask_TiTo_Subj17-24,2,350,376,m,0,LONG,1
SINGLE_TASK,Exp1_SingleTask_TiTo_Subj17-24,2,100,376,m,0,SHORT,1
SINGLE_TASK,Exp1_SingleTask_TiTo_Subj17-24,20,350,376,m,0,LONG,1
SINGLE_TASK,Exp1_SingleTask_TiTo_Subj17-24,23,300,376,z,0,LONG,1
SINGLE_TASK,Exp1_SingleTask_ToTi_Subj24-32,31,350,376,z,0,LONG,1
SINGLE_TASK,Exp1_SingleTask_TiTo_Subj17-24,23,300,376,m,100,LONG,1
SINGLE_TASK,Exp1_SingleTask_TiTo_Subj17-24,23,300,376,z,100,LONG,1
SINGLE_TASK,Exp1_SingleTask_TiTo_Subj17-24,23,350,376,m,100,LONG,1
SINGLE_TASK,Exp1_SingleTask_ToTi_Subj24-32,21,350,376,m,100,LONG,1
SINGLE_TASK,Exp1_SingleTask_ToTi_Subj24-32,21,300,376,m,100,LONG,1
SINGLE_TASK,Exp1_SingleTask_ToTi_Subj24-32,25,300,376,m,100,LONG,1
SINGLE_TASK,Exp1_SingleTask_ToTi_Subj24-32,29,350,376,m,100,LONG,1
DUAL_TASK,Exp1_DualTask_ToTi_Subj9-16,28,100,376,m,100,SHORT,1
SINGLE_TASK,Exp1_SingleTask_TiTo_Subj17-24,2,350,377,m,0,LONG,1
SINGLE_TASK,Exp1_SingleTask_TiTo_Subj17-24,23,100,377,z,0,SHORT,1
SINGLE_TASK,Exp1_SingleTask_TiTo_Subj17-24,23,100,377,z,0,SHORT,1
SINGLE_TASK,Exp1_SingleTask_TiTo_Subj17-24,23,350,377,z,0,LONG,1
SINGLE_TASK,Exp1_SingleTask_TiTo_Subj17-24,4,300,377,z,0,LONG,1
SINGLE_TASK,Exp1_SingleTask_ToTi_Subj24-32,21,350,377,z,0,LONG,1
SINGLE_TASK,Exp1_SingleTask_ToTi_Subj24-32,29,350,377,m,0,LONG,1
SINGLE_TASK,Exp1_SingleTask_ToTi_Subj24-32,31,350,377,m,0,LONG,1
SINGLE_TASK,Exp1_SingleTask_TiTo_Subj17-24,23,100,377,z,100,SHORT,1
SINGLE_TASK,Exp1_SingleTask_TiTo_Subj17-24,23,350,377,m,100,LONG,1
SINGLE_TASK,Exp1_SingleTask_ToTi_Subj24-32,21,150,377,z,100,SHORT,1
SINGLE_TASK,Exp1_SingleTask_ToTi_Subj24-32,21,150,377,m,100,SHORT,1
SINGLE_TASK,Exp1_SingleTask_ToTi_Subj24-32,21,100,377,z,100,SHORT,1
SINGLE_TASK,Exp1_SingleTask_ToTi_Subj24-32,29,350,377,z,100,LONG,1
SINGLE_TASK,Exp1_SingleTask_ToTi_Subj24-32,31,300,377,z,100,LONG,1
SINGLE_TASK,Exp1_SingleTask_ToTi_Subj24-32,31,350,377,m,100,LONG,1
SINGLE_TASK,Exp1_SingleTask_ToTi_Subj24-32,6,300,377,z,100,LONG,1
DUAL_TASK,Exp1_DualTask_ToTi_Subj9-16,28,300,377,z,100,LONG,1
SINGLE_TASK,Exp1_SingleTask_TiTo_Subj17-24,2,300,378,m,0,LONG,1
SINGLE_TASK,Exp1_SingleTask_TiTo_Subj17-24,23,100,378,m,0,SHORT,1
SINGLE_TASK,Exp1_SingleTask_TiTo_Subj17-24,23,100,378,m,0,SHORT,1
SINGLE_TASK,Exp1_SingleTask_ToTi_Subj24-32,21,350,378,m,0,LONG,1
SINGLE_TASK,Exp1_SingleTask_ToTi_Subj24-32,29,350,378,m,0,LONG,1
SINGLE_TASK,Exp1_SingleTask_ToTi_Subj24-32,31,150,378,m,0,SHORT,1
SINGLE_TASK,Exp1_SingleTask_ToTi_Subj24-32,31,100,378,m,0,SHORT,1
SINGLE_TASK,Exp1_SingleTask_TiTo_Subj17-24,2,350,378,z,100,LONG,1
SINGLE_TASK,Exp1_SingleTask_TiTo_Subj17-24,23,350,378,z,100,LONG,1
SINGLE_TASK,Exp1_SingleTask_TiTo_Subj17-24,23,350,378,z,100,LONG,1
SINGLE_TASK,Exp1_SingleTask_TiTo_Subj17-24,23,150,378,m,100,SHORT,1
SINGLE_TASK,Exp1_SingleTask_ToTi_Subj24-32,21,350,378,z,100,LONG,1
SINGLE_TASK,Exp1_SingleTask_ToTi_Subj24-32,21,150,378,z,100,SHORT,1
SINGLE_TASK,Exp1_SingleTask_ToTi_Subj24-32,29,350,378,m,100,LONG,1
SINGLE_TASK,Exp1_SingleTask_ToTi_Subj24-32,29,350,378,z,100,LONG,1
SINGLE_TASK,Exp1_SingleTask_ToTi_Subj24-32,29,350,378,m,100,LONG,1
SINGLE_TASK,Exp1_SingleTask_ToTi_Subj24-32,31,350,378,z,100,LONG,1
SINGLE_TASK,Exp1_SingleTask_ToTi_Subj24-32,6,350,378,z,100,LONG,1
SINGLE_TASK,Exp1_SingleTask_ToTi_Subj24-32,7,300,378,m,100,LONG,1
DUAL_TASK,Exp1_DualTask_ToTi_Subj9-16,18,100,378,m,100,SHORT,1
SINGLE_TASK,Exp1_SingleTask_TiTo_Subj17-24,23,100,379,m,0,SHORT,1
SINGLE_TASK,Exp1_SingleTask_TiTo_Subj17-24,23,350,379,z,0,LONG,1
SINGLE_TASK,Exp1_SingleTask_TiTo_Subj17-24,23,150,379,z,0,SHORT,1
SINGLE_TASK,Exp1_SingleTask_TiTo_Subj17-24,23,100,379,z,0,SHORT,1
SINGLE_TASK,Exp1_SingleTask_TiTo_Subj17-24,23,100,379,z,0,SHORT,1
SINGLE_TASK,Exp1_SingleTask_TiTo_Subj17-24,23,150,379,m,0,SHORT,1
SINGLE_TASK,Exp1_SingleTask_ToTi_Subj24-32,21,150,379,m,0,SHORT,1
SINGLE_TASK,Exp1_SingleTask_ToTi_Subj24-32,29,150,379,z,0,SHORT,1
SINGLE_TASK,Exp1_SingleTask_ToTi_Subj24-32,7,150,379,z,0,SHORT,1
DUAL_TASK,Exp1_DualTask_ToTi_Subj9-16,18,300,379,z,0,LONG,1
SINGLE_TASK,Exp1_SingleTask_TiTo_Subj17-24,23,150,379,z,100,SHORT,1
SINGLE_TASK,Exp1_SingleTask_TiTo_Subj17-24,23,100,379,z,100,SHORT,1
SINGLE_TASK,Exp1_SingleTask_ToTi_Subj24-32,21,150,379,z,100,SHORT,1
SINGLE_TASK,Exp1_SingleTask_ToTi_Subj24-32,21,100,379,z,100,SHORT,1
SINGLE_TASK,Exp1_SingleTask_ToTi_Subj24-32,21,300,379,m,100,LONG,1
SINGLE_TASK,Exp1_SingleTask_ToTi_Subj24-32,21,300,379,z,100,LONG,1
SINGLE_TASK,Exp1_SingleTask_ToTi_Subj24-32,21,100,379,m,100,SHORT,1
SINGLE_TASK,Exp1_SingleTask_ToTi_Subj24-32,21,150,379,m,100,SHORT,1
SINGLE_TASK,Exp1_SingleTask_ToTi_Subj24-32,29,150,379,m,100,SHORT,1
SINGLE_TASK,Exp1_SingleTask_ToTi_Subj24-32,31,300,379,z,100,LONG,1
SINGLE_TASK,Exp1_SingleTask_TiTo_Subj17-24,20,300,380,m,0,LONG,1
SINGLE_TASK,Exp1_SingleTask_TiTo_Subj17-24,23,300,380,z,0,LONG,1
SINGLE_TASK,Exp1_SingleTask_TiTo_Subj17-24,23,150,380,z,0,SHORT,1
SINGLE_TASK,Exp1_SingleTask_TiTo_Subj17-24,23,150,380,z,0,SHORT,1
SINGLE_TASK,Exp1_SingleTask_TiTo_Subj17-24,24,350,380,m,0,LONG,1
SINGLE_TASK,Exp1_SingleTask_ToTi_Subj24-32,21,100,380,m,0,SHORT,1
SINGLE_TASK,Exp1_SingleTask_TiTo_Subj17-24,23,100,380,z,100,SHORT,1
SINGLE_TASK,Exp1_SingleTask_TiTo_Subj17-24,23,350,380,m,100,LONG,1
SINGLE_TASK,Exp1_SingleTask_ToTi_Subj24-32,21,100,380,m,100,SHORT,1
SINGLE_TASK,Exp1_SingleTask_ToTi_Subj24-32,21,150,380,z,100,SHORT,1
SINGLE_TASK,Exp1_SingleTask_ToTi_Subj24-32,31,300,380,z,100,LONG,1
DUAL_TASK,Exp1_DualTask_ToTi_Subj9-16,28,150,380,z,100,SHORT,1
SINGLE_TASK,Exp1_SingleTask_TiTo_Subj17-24,23,100,381,m,0,SHORT,1
SINGLE_TASK,Exp1_SingleTask_ToTi_Subj24-32,21,100,381,z,0,SHORT,1
SINGLE_TASK,Exp1_SingleTask_ToTi_Subj24-32,21,100,381,m,0,SHORT,1
SINGLE_TASK,Exp1_SingleTask_ToTi_Subj24-32,29,350,381,m,0,LONG,1
SINGLE_TASK,Exp1_SingleTask_ToTi_Subj24-32,31,350,381,m,0,LONG,1
SINGLE_TASK,Exp1_SingleTask_ToTi_Subj24-32,31,350,381,m,0,LONG,1
SINGLE_TASK,Exp1_SingleTask_ToTi_Subj24-32,7,150,381,m,0,SHORT,1
SINGLE_TASK,Exp1_SingleTask_ToTi_Subj24-32,7,150,381,m,0,SHORT,1
SINGLE_TASK,Exp1_SingleTask_TiTo_Subj17-24,2,350,381,m,100,LONG,1
SINGLE_TASK,Exp1_SingleTask_TiTo_Subj17-24,20,350,381,z,100,LONG,1
SINGLE_TASK,Exp1_SingleTask_TiTo_Subj17-24,23,350,381,m,100,LONG,1
SINGLE_TASK,Exp1_SingleTask_TiTo_Subj17-24,23,300,381,z,100,LONG,1
SINGLE_TASK,Exp1_SingleTask_TiTo_Subj17-24,23,100,381,m,100,SHORT,1
SINGLE_TASK,Exp1_SingleTask_ToTi_Subj24-32,21,150,381,m,100,SHORT,1
SINGLE_TASK,Exp1_SingleTask_ToTi_Subj24-32,21,350,381,m,100,LONG,1
SINGLE_TASK,Exp1_SingleTask_ToTi_Subj24-32,29,350,381,z,100,LONG,1
SINGLE_TASK,Exp1_SingleTask_ToTi_Subj24-32,6,300,381,m,100,LONG,1
SINGLE_TASK,Exp1_SingleTask_ToTi_Subj24-32,6,150,381,z,100,SHORT,1
DUAL_TASK,Exp1_DualTask_TiTo_Subj1-8,8,300,381,z,100,LONG,1
SINGLE_TASK,Exp1_SingleTask_TiTo_Subj17-24,2,350,382,z,0,LONG,1
SINGLE_TASK,Exp1_SingleTask_TiTo_Subj17-24,2,150,382,z,0,SHORT,1
SINGLE_TASK,Exp1_SingleTask_TiTo_Subj17-24,23,350,382,m,0,LONG,1
SINGLE_TASK,Exp1_SingleTask_TiTo_Subj17-24,23,100,382,z,0,SHORT,1
SINGLE_TASK,Exp1_SingleTask_ToTi_Subj24-32,21,350,382,m,0,LONG,1
SINGLE_TASK,Exp1_SingleTask_ToTi_Subj24-32,21,150,382,m,0,SHORT,1
SINGLE_TASK,Exp1_SingleTask_ToTi_Subj24-32,31,100,382,z,0,SHORT,1
SINGLE_TASK,Exp1_SingleTask_ToTi_Subj24-32,6,300,382,m,0,LONG,1
SINGLE_TASK,Exp1_SingleTask_TiTo_Subj17-24,23,150,382,z,100,SHORT,1
SINGLE_TASK,Exp1_SingleTask_TiTo_Subj17-24,23,100,382,m,100,SHORT,1
SINGLE_TASK,Exp1_SingleTask_ToTi_Subj24-32,21,150,382,m,100,SHORT,1
SINGLE_TASK,Exp1_SingleTask_ToTi_Subj24-32,21,300,382,z,100,LONG,1
SINGLE_TASK,Exp1_SingleTask_ToTi_Subj24-32,29,350,382,z,100,LONG,1
DUAL_TASK,Exp1_DualTask_ToTi_Subj9-16,28,150,382,z,100,SHORT,1
SINGLE_TASK,Exp1_SingleTask_TiTo_Subj17-24,2,150,383,m,0,SHORT,1
SINGLE_TASK,Exp1_SingleTask_TiTo_Subj17-24,20,300,383,z,0,LONG,1
SINGLE_TASK,Exp1_SingleTask_TiTo_Subj17-24,23,150,383,m,0,SHORT,1
SINGLE_TASK,Exp1_SingleTask_ToTi_Subj24-32,29,300,383,m,0,LONG,1
SINGLE_TASK,Exp1_SingleTask_ToTi_Subj24-32,29,300,383,m,0,LONG,1
SINGLE_TASK,Exp1_SingleTask_ToTi_Subj24-32,29,100,383,m,0,SHORT,1
SINGLE_TASK,Exp1_SingleTask_ToTi_Subj24-32,31,150,383,z,0,SHORT,1
SINGLE_TASK,Exp1_SingleTask_ToTi_Subj24-32,31,300,383,m,0,LONG,1
DUAL_TASK,Exp1_DualTask_ToTi_Subj9-16,16,300,383,m,0,LONG,1
DUAL_TASK,Exp1_DualTask_ToTi_Subj9-16,28,300,383,z,0,LONG,1
SINGLE_TASK,Exp1_SingleTask_TiTo_Subj17-24,23,350,383,z,100,LONG,1
SINGLE_TASK,Exp1_SingleTask_ToTi_Subj24-32,21,150,383,m,100,SHORT,1
SINGLE_TASK,Exp1_SingleTask_ToTi_Subj24-32,29,300,383,z,100,LONG,1
SINGLE_TASK,Exp1_SingleTask_TiTo_Subj17-24,2,350,384,m,0,LONG,1
SINGLE_TASK,Exp1_SingleTask_TiTo_Subj17-24,2,150,384,m,0,SHORT,1
SINGLE_TASK,Exp1_SingleTask_ToTi_Subj24-32,21,300,384,z,0,LONG,1
SINGLE_TASK,Exp1_SingleTask_ToTi_Subj24-32,31,300,384,m,0,LONG,1
SINGLE_TASK,Exp1_SingleTask_ToTi_Subj24-32,7,100,384,z,0,SHORT,1
DUAL_TASK,Exp1_DualTask_ToTi_Subj9-16,30,350,384,m,0,LONG,1
SINGLE_TASK,Exp1_SingleTask_TiTo_Subj17-24,1,150,384,m,100,SHORT,1
SINGLE_TASK,Exp1_SingleTask_TiTo_Subj17-24,23,150,384,z,100,SHORT,1
DUAL_TASK,Exp1_DualTask_TiTo_Subj1-8,22,300,384,z,100,LONG,1
SINGLE_TASK,Exp1_SingleTask_TiTo_Subj17-24,2,300,385,m,0,LONG,1
SINGLE_TASK,Exp1_SingleTask_TiTo_Subj17-24,2,350,385,m,0,LONG,1
SINGLE_TASK,Exp1_SingleTask_TiTo_Subj17-24,23,350,385,m,0,LONG,1
SINGLE_TASK,Exp1_SingleTask_TiTo_Subj17-24,23,350,385,z,0,LONG,1
SINGLE_TASK,Exp1_SingleTask_TiTo_Subj17-24,23,350,385,m,0,LONG,1
SINGLE_TASK,Exp1_SingleTask_TiTo_Subj17-24,4,300,385,z,0,LONG,1
SINGLE_TASK,Exp1_SingleTask_ToTi_Subj24-32,21,150,385,m,0,SHORT,1
SINGLE_TASK,Exp1_SingleTask_ToTi_Subj24-32,31,300,385,m,0,LONG,1
SINGLE_TASK,Exp1_SingleTask_ToTi_Subj24-32,31,350,385,z,0,LONG,1
SINGLE_TASK,Exp1_SingleTask_ToTi_Subj24-32,7,350,385,z,0,LONG,1
SINGLE_TASK,Exp1_SingleTask_TiTo_Subj17-24,2,350,385,m,100,LONG,1
SINGLE_TASK,Exp1_SingleTask_TiTo_Subj17-24,23,350,385,m,100,LONG,1
SINGLE_TASK,Exp1_SingleTask_TiTo_Subj17-24,23,350,385,z,100,LONG,1
SINGLE_TASK,Exp1_SingleTask_ToTi_Subj24-32,21,100,385,m,100,SHORT,1
SINGLE_TASK,Exp1_SingleTask_ToTi_Subj24-32,21,100,385,z,100,SHORT,1
SINGLE_TASK,Exp1_SingleTask_ToTi_Subj24-32,29,350,385,z,100,LONG,1
SINGLE_TASK,Exp1_SingleTask_ToTi_Subj24-32,29,350,385,m,100,LONG,1
SINGLE_TASK,Exp1_SingleTask_ToTi_Subj24-32,29,300,385,z,100,LONG,1
SINGLE_TASK,Exp1_SingleTask_ToTi_Subj24-32,31,150,385,m,100,SHORT,1
SINGLE_TASK,Exp1_SingleTask_TiTo_Subj17-24,2,100,386,m,0,SHORT,1
SINGLE_TASK,Exp1_SingleTask_TiTo_Subj17-24,2,300,386,m,0,LONG,1
SINGLE_TASK,Exp1_SingleTask_TiTo_Subj17-24,20,350,386,z,0,LONG,1
SINGLE_TASK,Exp1_SingleTask_TiTo_Subj17-24,23,150,386,z,0,SHORT,1
SINGLE_TASK,Exp1_SingleTask_TiTo_Subj17-24,23,350,386,z,0,LONG,1
SINGLE_TASK,Exp1_SingleTask_TiTo_Subj17-24,23,100,386,m,0,SHORT,1
SINGLE_TASK,Exp1_SingleTask_TiTo_Subj17-24,23,300,386,m,0,LONG,1
SINGLE_TASK,Exp1_SingleTask_TiTo_Subj17-24,5,350,386,m,0,LONG,1
SINGLE_TASK,Exp1_SingleTask_ToTi_Subj24-32,21,100,386,m,0,SHORT,1
SINGLE_TASK,Exp1_SingleTask_ToTi_Subj24-32,21,100,386,m,0,SHORT,1
SINGLE_TASK,Exp1_SingleTask_ToTi_Subj24-32,31,300,386,z,0,LONG,1
DUAL_TASK,Exp1_DualTask_ToTi_Subj9-16,16,150,386,z,0,SHORT,1
SINGLE_TASK,Exp1_SingleTask_TiTo_Subj17-24,3,100,386,z,100,SHORT,1
SINGLE_TASK,Exp1_SingleTask_ToTi_Subj24-32,21,350,386,m,100,LONG,1
SINGLE_TASK,Exp1_SingleTask_ToTi_Subj24-32,21,150,386,z,100,SHORT,1
SINGLE_TASK,Exp1_SingleTask_ToTi_Subj24-32,21,100,386,z,100,SHORT,1
SINGLE_TASK,Exp1_SingleTask_ToTi_Subj24-32,21,150,386,z,100,SHORT,1
SINGLE_TASK,Exp1_SingleTask_ToTi_Subj24-32,29,350,386,m,100,LONG,1
SINGLE_TASK,Exp1_SingleTask_ToTi_Subj24-32,7,350,386,z,100,LONG,1
DUAL_TASK,Exp1_DualTask_ToTi_Subj9-16,18,300,386,m,100,LONG,1
DUAL_TASK,Exp1_DualTask_TiTo_Subj1-8,22,150,386,m,100,SHORT,1
SINGLE_TASK,Exp1_SingleTask_TiTo_Subj17-24,2,350,387,m,0,LONG,1
SINGLE_TASK,Exp1_SingleTask_TiTo_Subj17-24,2,350,387,z,0,LONG,1
SINGLE_TASK,Exp1_SingleTask_TiTo_Subj17-24,20,300,387,m,0,LONG,1
SINGLE_TASK,Exp1_SingleTask_TiTo_Subj17-24,20,350,387,z,0,LONG,1
SINGLE_TASK,Exp1_SingleTask_ToTi_Subj24-32,21,300,387,m,0,LONG,1
SINGLE_TASK,Exp1_SingleTask_ToTi_Subj24-32,29,150,387,z,0,SHORT,1
SINGLE_TASK,Exp1_SingleTask_ToTi_Subj24-32,6,100,387,z,0,SHORT,1
SINGLE_TASK,Exp1_SingleTask_TiTo_Subj17-24,1,300,387,m,100,LONG,1
SINGLE_TASK,Exp1_SingleTask_TiTo_Subj17-24,23,100,387,m,100,SHORT,1
SINGLE_TASK,Exp1_SingleTask_TiTo_Subj17-24,23,100,387,m,100,SHORT,1
SINGLE_TASK,Exp1_SingleTask_ToTi_Subj24-32,21,350,387,m,100,LONG,1
SINGLE_TASK,Exp1_SingleTask_ToTi_Subj24-32,21,100,387,z,100,SHORT,1
SINGLE_TASK,Exp1_SingleTask_ToTi_Subj24-32,29,350,387,m,100,LONG,1
DUAL_TASK,Exp1_DualTask_ToTi_Subj9-16,28,300,387,z,100,LONG,1
SINGLE_TASK,Exp1_SingleTask_TiTo_Subj17-24,2,150,388,m,0,SHORT,1
SINGLE_TASK,Exp1_SingleTask_TiTo_Subj17-24,2,100,388,m,0,SHORT,1
SINGLE_TASK,Exp1_SingleTask_TiTo_Subj17-24,23,350,388,z,0,LONG,1
SINGLE_TASK,Exp1_SingleTask_TiTo_Subj17-24,23,300,388,m,0,LONG,1
SINGLE_TASK,Exp1_SingleTask_TiTo_Subj17-24,23,350,388,m,0,LONG,1
SINGLE_TASK,Exp1_SingleTask_TiTo_Subj17-24,23,350,388,m,0,LONG,1
SINGLE_TASK,Exp1_SingleTask_ToTi_Subj24-32,7,350,388,m,0,LONG,1
DUAL_TASK,Exp1_DualTask_TiTo_Subj1-8,22,100,388,m,0,SHORT,1
SINGLE_TASK,Exp1_SingleTask_TiTo_Subj17-24,2,300,388,m,100,LONG,1
SINGLE_TASK,Exp1_SingleTask_TiTo_Subj17-24,23,300,388,z,100,LONG,1
SINGLE_TASK,Exp1_SingleTask_TiTo_Subj17-24,23,150,388,z,100,SHORT,1
SINGLE_TASK,Exp1_SingleTask_TiTo_Subj17-24,23,150,388,m,100,SHORT,1
SINGLE_TASK,Exp1_SingleTask_TiTo_Subj17-24,3,150,388,z,100,SHORT,1
SINGLE_TASK,Exp1_SingleTask_TiTo_Subj17-24,3,150,388,m,100,SHORT,1
SINGLE_TASK,Exp1_SingleTask_ToTi_Subj24-32,21,300,388,m,100,LONG,1
SINGLE_TASK,Exp1_SingleTask_ToTi_Subj24-32,29,350,388,m,100,LONG,1
SINGLE_TASK,Exp1_SingleTask_TiTo_Subj17-24,23,350,389,z,0,LONG,1
SINGLE_TASK,Exp1_SingleTask_TiTo_Subj17-24,23,100,389,z,0,SHORT,1
SINGLE_TASK,Exp1_SingleTask_TiTo_Subj17-24,23,100,389,m,0,SHORT,1
SINGLE_TASK,Exp1_SingleTask_TiTo_Subj17-24,23,350,389,z,0,LONG,1
SINGLE_TASK,Exp1_SingleTask_ToTi_Subj24-32,31,150,389,m,0,SHORT,1
SINGLE_TASK,Exp1_SingleTask_ToTi_Subj24-32,7,350,389,m,0,LONG,1
DUAL_TASK,Exp1_DualTask_ToTi_Subj9-16,28,300,389,m,0,LONG,1
SINGLE_TASK,Exp1_SingleTask_TiTo_Subj17-24,2,350,389,m,100,LONG,1
SINGLE_TASK,Exp1_SingleTask_TiTo_Subj17-24,2,350,389,z,100,LONG,1
SINGLE_TASK,Exp1_SingleTask_TiTo_Subj17-24,2,300,389,m,100,LONG,1
SINGLE_TASK,Exp1_SingleTask_TiTo_Subj17-24,23,350,389,z,100,LONG,1
SINGLE_TASK,Exp1_SingleTask_TiTo_Subj17-24,23,300,389,z,100,LONG,1
SINGLE_TASK,Exp1_SingleTask_TiTo_Subj17-24,5,150,389,m,100,SHORT,1
SINGLE_TASK,Exp1_SingleTask_ToTi_Subj24-32,31,150,389,m,100,SHORT,1
SINGLE_TASK,Exp1_SingleTask_ToTi_Subj24-32,31,100,389,m,100,SHORT,1
SINGLE_TASK,Exp1_SingleTask_TiTo_Subj17-24,2,300,390,z,0,LONG,1
SINGLE_TASK,Exp1_SingleTask_TiTo_Subj17-24,2,150,390,m,0,SHORT,1
SINGLE_TASK,Exp1_SingleTask_TiTo_Subj17-24,20,350,390,z,0,LONG,1
SINGLE_TASK,Exp1_SingleTask_TiTo_Subj17-24,23,350,390,z,0,LONG,1
SINGLE_TASK,Exp1_SingleTask_TiTo_Subj17-24,24,300,390,z,0,LONG,1
SINGLE_TASK,Exp1_SingleTask_TiTo_Subj17-24,24,350,390,m,0,LONG,1
SINGLE_TASK,Exp1_SingleTask_ToTi_Subj24-32,21,150,390,m,0,SHORT,1
SINGLE_TASK,Exp1_SingleTask_ToTi_Subj24-32,21,150,390,m,0,SHORT,1
SINGLE_TASK,Exp1_SingleTask_ToTi_Subj24-32,21,100,390,z,0,SHORT,1
SINGLE_TASK,Exp1_SingleTask_ToTi_Subj24-32,29,300,390,z,0,LONG,1
SINGLE_TASK,Exp1_SingleTask_ToTi_Subj24-32,6,150,390,z,0,SHORT,1
SINGLE_TASK,Exp1_SingleTask_TiTo_Subj17-24,23,150,390,z,100,SHORT,1
SINGLE_TASK,Exp1_SingleTask_TiTo_Subj17-24,23,300,390,m,100,LONG,1
SINGLE_TASK,Exp1_SingleTask_TiTo_Subj17-24,23,150,390,m,100,SHORT,1
SINGLE_TASK,Exp1_SingleTask_TiTo_Subj17-24,23,300,390,z,100,LONG,1
SINGLE_TASK,Exp1_SingleTask_TiTo_Subj17-24,23,150,390,m,100,SHORT,1
SINGLE_TASK,Exp1_SingleTask_TiTo_Subj17-24,3,100,390,z,100,SHORT,1
SINGLE_TASK,Exp1_SingleTask_TiTo_Subj17-24,3,150,390,z,100,SHORT,1
SINGLE_TASK,Exp1_SingleTask_ToTi_Subj24-32,21,300,390,z,100,LONG,1
SINGLE_TASK,Exp1_SingleTask_ToTi_Subj24-32,21,100,390,m,100,SHORT,1
SINGLE_TASK,Exp1_SingleTask_ToTi_Subj24-32,21,100,390,z,100,SHORT,1
SINGLE_TASK,Exp1_SingleTask_ToTi_Subj24-32,29,300,390,m,100,LONG,1
SINGLE_TASK,Exp1_SingleTask_ToTi_Subj24-32,29,150,390,z,100,SHORT,1
SINGLE_TASK,Exp1_SingleTask_ToTi_Subj24-32,31,350,390,z,100,LONG,1
SINGLE_TASK,Exp1_SingleTask_TiTo_Subj17-24,23,350,391,m,0,LONG,1
SINGLE_TASK,Exp1_SingleTask_ToTi_Subj24-32,25,150,391,z,0,SHORT,1
SINGLE_TASK,Exp1_SingleTask_ToTi_Subj24-32,29,350,391,z,0,LONG,1
SINGLE_TASK,Exp1_SingleTask_ToTi_Subj24-32,7,150,391,m,0,SHORT,1
SINGLE_TASK,Exp1_SingleTask_TiTo_Subj17-24,23,300,391,z,100,LONG,1
SINGLE_TASK,Exp1_SingleTask_TiTo_Subj17-24,23,150,391,z,100,SHORT,1
SINGLE_TASK,Exp1_SingleTask_ToTi_Subj24-32,21,150,391,z,100,SHORT,1
SINGLE_TASK,Exp1_SingleTask_ToTi_Subj24-32,29,350,391,z,100,LONG,1
SINGLE_TASK,Exp1_SingleTask_ToTi_Subj24-32,31,300,391,z,100,LONG,1
SINGLE_TASK,Exp1_SingleTask_ToTi_Subj24-32,31,300,391,m,100,LONG,1
SINGLE_TASK,Exp1_SingleTask_TiTo_Subj17-24,2,350,392,m,0,LONG,1
SINGLE_TASK,Exp1_SingleTask_TiTo_Subj17-24,20,350,392,z,0,LONG,1
SINGLE_TASK,Exp1_SingleTask_ToTi_Subj24-32,21,300,392,m,0,LONG,1
SINGLE_TASK,Exp1_SingleTask_ToTi_Subj24-32,21,150,392,z,0,SHORT,1
SINGLE_TASK,Exp1_SingleTask_ToTi_Subj24-32,21,100,392,z,0,SHORT,1
SINGLE_TASK,Exp1_SingleTask_TiTo_Subj17-24,2,350,392,m,100,LONG,1
SINGLE_TASK,Exp1_SingleTask_TiTo_Subj17-24,23,150,392,m,100,SHORT,1
SINGLE_TASK,Exp1_SingleTask_TiTo_Subj17-24,23,350,392,z,100,LONG,1
SINGLE_TASK,Exp1_SingleTask_TiTo_Subj17-24,23,100,392,z,100,SHORT,1
SINGLE_TASK,Exp1_SingleTask_ToTi_Subj24-32,21,300,392,z,100,LONG,1
SINGLE_TASK,Exp1_SingleTask_ToTi_Subj24-32,21,150,392,m,100,SHORT,1
SINGLE_TASK,Exp1_SingleTask_ToTi_Subj24-32,31,300,392,z,100,LONG,1
SINGLE_TASK,Exp1_SingleTask_ToTi_Subj24-32,31,350,392,z,100,LONG,1
SINGLE_TASK,Exp1_SingleTask_TiTo_Subj17-24,2,300,393,m,0,LONG,1
SINGLE_TASK,Exp1_SingleTask_TiTo_Subj17-24,20,300,393,z,0,LONG,1
SINGLE_TASK,Exp1_SingleTask_TiTo_Subj17-24,3,150,393,m,0,SHORT,1
SINGLE_TASK,Exp1_SingleTask_TiTo_Subj17-24,3,300,393,z,0,LONG,1
SINGLE_TASK,Exp1_SingleTask_TiTo_Subj17-24,4,150,393,z,0,SHORT,1
SINGLE_TASK,Exp1_SingleTask_TiTo_Subj17-24,4,300,393,m,0,LONG,1
SINGLE_TASK,Exp1_SingleTask_ToTi_Subj24-32,29,150,393,z,0,SHORT,1
SINGLE_TASK,Exp1_SingleTask_ToTi_Subj24-32,31,350,393,m,0,LONG,1
DUAL_TASK,Exp1_DualTask_ToTi_Subj9-16,16,150,393,z,0,SHORT,1
DUAL_TASK,Exp1_DualTask_ToTi_Subj9-16,18,150,393,z,0,SHORT,1
DUAL_TASK,Exp1_DualTask_TiTo_Subj1-8,22,100,393,m,0,SHORT,1
SINGLE_TASK,Exp1_SingleTask_TiTo_Subj17-24,23,300,393,z,100,LONG,1
SINGLE_TASK,Exp1_SingleTask_TiTo_Subj17-24,3,100,393,z,100,SHORT,1
DUAL_TASK,Exp1_DualTask_ToTi_Subj9-16,28,100,393,m,100,SHORT,1
SINGLE_TASK,Exp1_SingleTask_TiTo_Subj17-24,23,100,394,z,0,SHORT,1
SINGLE_TASK,Exp1_SingleTask_TiTo_Subj17-24,23,150,394,z,0,SHORT,1
SINGLE_TASK,Exp1_SingleTask_TiTo_Subj17-24,23,350,394,m,0,LONG,1
SINGLE_TASK,Exp1_SingleTask_TiTo_Subj17-24,23,300,394,z,0,LONG,1
SINGLE_TASK,Exp1_SingleTask_TiTo_Subj17-24,23,350,394,z,0,LONG,1
SINGLE_TASK,Exp1_SingleTask_ToTi_Subj24-32,21,300,394,z,0,LONG,1
SINGLE_TASK,Exp1_SingleTask_ToTi_Subj24-32,29,100,394,z,0,SHORT,1
SINGLE_TASK,Exp1_SingleTask_ToTi_Subj24-32,29,150,394,m,0,SHORT,1
SINGLE_TASK,Exp1_SingleTask_ToTi_Subj24-32,31,350,394,m,0,LONG,1
SINGLE_TASK,Exp1_SingleTask_ToTi_Subj24-32,7,300,394,z,0,LONG,1
SINGLE_TASK,Exp1_SingleTask_TiTo_Subj17-24,2,350,394,m,100,LONG,1
SINGLE_TASK,Exp1_SingleTask_TiTo_Subj17-24,23,100,394,z,100,SHORT,1
SINGLE_TASK,Exp1_SingleTask_TiTo_Subj17-24,23,350,394,z,100,LONG,1
SINGLE_TASK,Exp1_SingleTask_ToTi_Subj24-32,21,100,394,m,100,SHORT,1
SINGLE_TASK,Exp1_SingleTask_ToTi_Subj24-32,6,350,394,m,100,LONG,1
SINGLE_TASK,Exp1_SingleTask_TiTo_Subj17-24,2,300,395,z,0,LONG,1
SINGLE_TASK,Exp1_SingleTask_TiTo_Subj17-24,23,350,395,m,0,LONG,1
SINGLE_TASK,Exp1_SingleTask_ToTi_Subj24-32,21,300,395,m,0,LONG,1
SINGLE_TASK,Exp1_SingleTask_ToTi_Subj24-32,29,300,395,m,0,LONG,1
SINGLE_TASK,Exp1_SingleTask_ToTi_Subj24-32,29,100,395,m,0,SHORT,1
SINGLE_TASK,Exp1_SingleTask_ToTi_Subj24-32,31,300,395,m,0,LONG,1
SINGLE_TASK,Exp1_SingleTask_ToTi_Subj24-32,31,350,395,m,0,LONG,1
SINGLE_TASK,Exp1_SingleTask_ToTi_Subj24-32,7,300,395,z,0,LONG,1
SINGLE_TASK,Exp1_SingleTask_TiTo_Subj17-24,23,300,395,z,100,LONG,1
SINGLE_TASK,Exp1_SingleTask_TiTo_Subj17-24,3,100,395,z,100,SHORT,1
SINGLE_TASK,Exp1_SingleTask_ToTi_Subj24-32,21,150,395,z,100,SHORT,1
SINGLE_TASK,Exp1_SingleTask_ToTi_Subj24-32,21,150,395,z,100,SHORT,1
SINGLE_TASK,Exp1_SingleTask_ToTi_Subj24-32,29,300,395,m,100,LONG,1
SINGLE_TASK,Exp1_SingleTask_ToTi_Subj24-32,6,100,395,z,100,SHORT,1
DUAL_TASK,Exp1_DualTask_ToTi_Subj9-16,28,150,395,m,100,SHORT,1
SINGLE_TASK,Exp1_SingleTask_TiTo_Subj17-24,2,150,396,z,0,SHORT,1
SINGLE_TASK,Exp1_SingleTask_TiTo_Subj17-24,23,150,396,m,0,SHORT,1
SINGLE_TASK,Exp1_SingleTask_TiTo_Subj17-24,23,350,396,z,0,LONG,1
SINGLE_TASK,Exp1_SingleTask_TiTo_Subj17-24,23,300,396,z,0,LONG,1
SINGLE_TASK,Exp1_SingleTask_TiTo_Subj17-24,23,300,396,z,0,LONG,1
SINGLE_TASK,Exp1_SingleTask_ToTi_Subj24-32,29,350,396,z,0,LONG,1
SINGLE_TASK,Exp1_SingleTask_ToTi_Subj24-32,29,350,396,z,0,LONG,1
SINGLE_TASK,Exp1_SingleTask_ToTi_Subj24-32,7,350,396,m,0,LONG,1
SINGLE_TASK,Exp1_SingleTask_ToTi_Subj24-32,7,300,396,m,0,LONG,1
DUAL_TASK,Exp1_DualTask_TiTo_Subj1-8,13,100,396,m,0,SHORT,1
DUAL_TASK,Exp1_DualTask_TiTo_Subj1-8,32,350,396,m,0,LONG,1
SINGLE_TASK,Exp1_SingleTask_TiTo_Subj17-24,2,350,396,m,100,LONG,1
SINGLE_TASK,Exp1_SingleTask_TiTo_Subj17-24,2,300,396,m,100,LONG,1
SINGLE_TASK,Exp1_SingleTask_TiTo_Subj17-24,20,100,396,z,100,SHORT,1
SINGLE_TASK,Exp1_SingleTask_ToTi_Subj24-32,29,150,396,z,100,SHORT,1
SINGLE_TASK,Exp1_SingleTask_ToTi_Subj24-32,29,350,396,m,100,LONG,1
SINGLE_TASK,Exp1_SingleTask_ToTi_Subj24-32,29,150,396,m,100,SHORT,1
SINGLE_TASK,Exp1_SingleTask_TiTo_Subj17-24,23,150,397,m,0,SHORT,1
SINGLE_TASK,Exp1_SingleTask_TiTo_Subj17-24,23,300,397,z,0,LONG,1
SINGLE_TASK,Exp1_SingleTask_TiTo_Subj17-24,23,350,397,z,0,LONG,1
SINGLE_TASK,Exp1_SingleTask_TiTo_Subj17-24,24,150,397,m,0,SHORT,1
SINGLE_TASK,Exp1_SingleTask_ToTi_Subj24-32,17,300,397,m,0,LONG,1
SINGLE_TASK,Exp1_SingleTask_ToTi_Subj24-32,21,350,397,z,0,LONG,1
SINGLE_TASK,Exp1_SingleTask_ToTi_Subj24-32,21,300,397,m,0,LONG,1
SINGLE_TASK,Exp1_SingleTask_ToTi_Subj24-32,29,350,397,z,0,LONG,1
SINGLE_TASK,Exp1_SingleTask_ToTi_Subj24-32,31,100,397,m,0,SHORT,1
SINGLE_TASK,Exp1_SingleTask_ToTi_Subj24-32,31,150,397,z,0,SHORT,1
SINGLE_TASK,Exp1_SingleTask_ToTi_Subj24-32,7,300,397,m,0,LONG,1
SINGLE_TASK,Exp1_SingleTask_TiTo_Subj17-24,2,300,397,m,100,LONG,1
SINGLE_TASK,Exp1_SingleTask_TiTo_Subj17-24,20,300,397,m,100,LONG,1
SINGLE_TASK,Exp1_SingleTask_TiTo_Subj17-24,23,150,397,m,100,SHORT,1
SINGLE_TASK,Exp1_SingleTask_TiTo_Subj17-24,23,300,397,m,100,LONG,1
SINGLE_TASK,Exp1_SingleTask_TiTo_Subj17-24,23,100,397,m,100,SHORT,1
SINGLE_TASK,Exp1_SingleTask_TiTo_Subj17-24,3,150,397,z,100,SHORT,1
SINGLE_TASK,Exp1_SingleTask_ToTi_Subj24-32,29,300,397,z,100,LONG,1
SINGLE_TASK,Exp1_SingleTask_ToTi_Subj24-32,29,300,397,z,100,LONG,1
DUAL_TASK,Exp1_DualTask_ToTi_Subj9-16,28,300,397,m,100,LONG,1
SINGLE_TASK,Exp1_SingleTask_TiTo_Subj17-24,2,350,398,m,0,LONG,1
SINGLE_TASK,Exp1_SingleTask_TiTo_Subj17-24,23,150,398,m,0,SHORT,1
SINGLE_TASK,Exp1_SingleTask_TiTo_Subj17-24,23,300,398,z,0,LONG,1
SINGLE_TASK,Exp1_SingleTask_TiTo_Subj17-24,23,100,398,z,0,SHORT,1
SINGLE_TASK,Exp1_SingleTask_TiTo_Subj17-24,23,350,398,m,0,LONG,1
SINGLE_TASK,Exp1_SingleTask_ToTi_Subj24-32,17,350,398,m,0,LONG,1
SINGLE_TASK,Exp1_SingleTask_ToTi_Subj24-32,21,300,398,z,0,LONG,1
SINGLE_TASK,Exp1_SingleTask_ToTi_Subj24-32,29,350,398,m,0,LONG,1
SINGLE_TASK,Exp1_SingleTask_TiTo_Subj17-24,2,300,398,m,100,LONG,1
SINGLE_TASK,Exp1_SingleTask_ToTi_Subj24-32,21,150,398,z,100,SHORT,1
SINGLE_TASK,Exp1_SingleTask_ToTi_Subj24-32,31,350,398,m,100,LONG,1
SINGLE_TASK,Exp1_SingleTask_ToTi_Subj24-32,31,300,398,m,100,LONG,1
DUAL_TASK,Exp1_DualTask_TiTo_Subj1-8,22,300,398,m,100,LONG,1
SINGLE_TASK,Exp1_SingleTask_TiTo_Subj17-24,2,100,399,m,0,SHORT,1
SINGLE_TASK,Exp1_SingleTask_TiTo_Subj17-24,2,350,399,m,0,LONG,1
SINGLE_TASK,Exp1_SingleTask_TiTo_Subj17-24,23,150,399,m,0,SHORT,1
SINGLE_TASK,Exp1_SingleTask_TiTo_Subj17-24,23,300,399,z,0,LONG,1
SINGLE_TASK,Exp1_SingleTask_ToTi_Subj24-32,17,350,399,m,0,LONG,1
SINGLE_TASK,Exp1_SingleTask_ToTi_Subj24-32,21,150,399,m,0,SHORT,1
SINGLE_TASK,Exp1_SingleTask_ToTi_Subj24-32,21,150,399,z,0,SHORT,1
SINGLE_TASK,Exp1_SingleTask_TiTo_Subj17-24,2,300,399,m,100,LONG,1
SINGLE_TASK,Exp1_SingleTask_TiTo_Subj17-24,2,350,399,m,100,LONG,1
SINGLE_TASK,Exp1_SingleTask_TiTo_Subj17-24,23,100,399,m,100,SHORT,1
SINGLE_TASK,Exp1_SingleTask_TiTo_Subj17-24,23,350,399,m,100,LONG,1
SINGLE_TASK,Exp1_SingleTask_ToTi_Subj24-32,21,350,399,z,100,LONG,1
SINGLE_TASK,Exp1_SingleTask_ToTi_Subj24-32,21,100,399,z,100,SHORT,1
SINGLE_TASK,Exp1_SingleTask_ToTi_Subj24-32,21,100,399,m,100,SHORT,1
SINGLE_TASK,Exp1_SingleTask_TiTo_Subj17-24,1,300,400,m,0,LONG,1
SINGLE_TASK,Exp1_SingleTask_TiTo_Subj17-24,2,350,400,m,0,LONG,1
SINGLE_TASK,Exp1_SingleTask_TiTo_Subj17-24,23,150,400,z,0,SHORT,1
SINGLE_TASK,Exp1_SingleTask_ToTi_Subj24-32,21,300,400,z,0,LONG,1
SINGLE_TASK,Exp1_SingleTask_ToTi_Subj24-32,31,150,400,z,0,SHORT,1
DUAL_TASK,Exp1_DualTask_TiTo_Subj1-8,22,150,400,m,0,SHORT,1
DUAL_TASK,Exp1_DualTask_TiTo_Subj1-8,32,350,400,m,0,LONG,1
SINGLE_TASK,Exp1_SingleTask_TiTo_Subj17-24,1,300,400,m,100,LONG,1
SINGLE_TASK,Exp1_SingleTask_TiTo_Subj17-24,23,150,400,m,100,SHORT,1
SINGLE_TASK,Exp1_SingleTask_ToTi_Subj24-32,21,100,400,m,100,SHORT,1
SINGLE_TASK,Exp1_SingleTask_TiTo_Subj17-24,20,150,401,m,0,SHORT,1
SINGLE_TASK,Exp1_SingleTask_TiTo_Subj17-24,23,150,401,m,0,SHORT,1
SINGLE_TASK,Exp1_SingleTask_ToTi_Subj24-32,29,350,401,z,0,LONG,1
SINGLE_TASK,Exp1_SingleTask_ToTi_Subj24-32,31,350,401,m,0,LONG,1
SINGLE_TASK,Exp1_SingleTask_ToTi_Subj24-32,31,100,401,m,0,SHORT,1
SINGLE_TASK,Exp1_SingleTask_ToTi_Subj24-32,6,350,401,m,0,LONG,1
DUAL_TASK,Exp1_DualTask_TiTo_Subj1-8,13,150,401,z,0,SHORT,1
DUAL_TASK,Exp1_DualTask_ToTi_Subj9-16,28,300,401,z,0,LONG,1
DUAL_TASK,Exp1_DualTask_TiTo_Subj1-8,32,300,401,m,0,LONG,1
SINGLE_TASK,Exp1_SingleTask_TiTo_Subj17-24,2,350,401,m,100,LONG,1
SINGLE_TASK,Exp1_SingleTask_TiTo_Subj17-24,2,150,401,z,100,SHORT,1
SINGLE_TASK,Exp1_SingleTask_TiTo_Subj17-24,23,150,401,m,100,SHORT,1
SINGLE_TASK,Exp1_SingleTask_ToTi_Subj24-32,21,100,401,m,100,SHORT,1
SINGLE_TASK,Exp1_SingleTask_ToTi_Subj24-32,21,150,401,m,100,SHORT,1
SINGLE_TASK,Exp1_SingleTask_ToTi_Subj24-32,29,350,401,z,100,LONG,1
SINGLE_TASK,Exp1_SingleTask_ToTi_Subj24-32,29,350,401,m,100,LONG,1
SINGLE_TASK,Exp1_SingleTask_ToTi_Subj24-32,29,300,401,z,100,LONG,1
SINGLE_TASK,Exp1_SingleTask_ToTi_Subj24-32,31,100,401,m,100,SHORT,1
SINGLE_TASK,Exp1_SingleTask_TiTo_Subj17-24,20,300,402,z,0,LONG,1
SINGLE_TASK,Exp1_SingleTask_TiTo_Subj17-24,20,150,402,z,0,SHORT,1
SINGLE_TASK,Exp1_SingleTask_TiTo_Subj17-24,23,150,402,z,0,SHORT,1
SINGLE_TASK,Exp1_SingleTask_TiTo_Subj17-24,23,300,402,z,0,LONG,1
SINGLE_TASK,Exp1_SingleTask_ToTi_Subj24-32,6,350,402,m,0,LONG,1
SINGLE_TASK,Exp1_SingleTask_ToTi_Subj24-32,7,100,402,m,0,SHORT,1
DUAL_TASK,Exp1_DualTask_ToTi_Subj9-16,27,300,402,z,0,LONG,1
SINGLE_TASK,Exp1_SingleTask_TiTo_Subj17-24,23,150,402,m,100,SHORT,1
SINGLE_TASK,Exp1_SingleTask_TiTo_Subj17-24,3,150,402,m,100,SHORT,1
SINGLE_TASK,Exp1_SingleTask_ToTi_Subj24-32,31,100,402,z,100,SHORT,1
SINGLE_TASK,Exp1_SingleTask_ToTi_Subj24-32,7,300,402,m,100,LONG,1
SINGLE_TASK,Exp1_SingleTask_TiTo_Subj17-24,2,100,403,z,0,SHORT,1
SINGLE_TASK,Exp1_SingleTask_TiTo_Subj17-24,2,350,403,m,0,LONG,1
SINGLE_TASK,Exp1_SingleTask_TiTo_Subj17-24,23,150,403,z,0,SHORT,1
SINGLE_TASK,Exp1_SingleTask_TiTo_Subj17-24,23,350,403,z,0,LONG,1
SINGLE_TASK,Exp1_SingleTask_TiTo_Subj17-24,23,300,403,z,0,LONG,1
SINGLE_TASK,Exp1_SingleTask_ToTi_Subj24-32,21,350,403,m,0,LONG,1
SINGLE_TASK,Exp1_SingleTask_ToTi_Subj24-32,31,150,403,m,0,SHORT,1
SINGLE_TASK,Exp1_SingleTask_ToTi_Subj24-32,31,300,403,z,0,LONG,1
SINGLE_TASK,Exp1_SingleTask_ToTi_Subj24-32,6,300,403,z,0,LONG,1
SINGLE_TASK,Exp1_SingleTask_ToTi_Subj24-32,6,150,403,z,0,SHORT,1
SINGLE_TASK,Exp1_SingleTask_ToTi_Subj24-32,7,350,403,z,0,LONG,1
DUAL_TASK,Exp1_DualTask_TiTo_Subj1-8,8,350,403,m,0,LONG,1
DUAL_TASK,Exp1_DualTask_TiTo_Subj1-8,13,350,403,z,0,LONG,1
DUAL_TASK,Exp1_DualTask_TiTo_Subj1-8,22,300,403,m,0,LONG,1
DUAL_TASK,Exp1_DualTask_ToTi_Subj9-16,28,300,403,m,0,LONG,1
DUAL_TASK,Exp1_DualTask_ToTi_Subj9-16,28,100,403,m,0,SHORT,1
SINGLE_TASK,Exp1_SingleTask_TiTo_Subj17-24,2,300,403,m,100,LONG,1
SINGLE_TASK,Exp1_SingleTask_TiTo_Subj17-24,3,150,403,m,100,SHORT,1
SINGLE_TASK,Exp1_SingleTask_ToTi_Subj24-32,21,150,403,z,100,SHORT,1
SINGLE_TASK,Exp1_SingleTask_ToTi_Subj24-32,21,100,403,m,100,SHORT,1
SINGLE_TASK,Exp1_SingleTask_ToTi_Subj24-32,29,300,403,m,100,LONG,1
SINGLE_TASK,Exp1_SingleTask_ToTi_Subj24-32,31,300,403,z,100,LONG,1
DUAL_TASK,Exp1_DualTask_TiTo_Subj1-8,22,100,403,m,100,SHORT,1
SINGLE_TASK,Exp1_SingleTask_TiTo_Subj17-24,20,350,404,z,0,LONG,1
SINGLE_TASK,Exp1_SingleTask_TiTo_Subj17-24,20,350,404,z,0,LONG,1
SINGLE_TASK,Exp1_SingleTask_TiTo_Subj17-24,20,150,404,z,0,SHORT,1
SINGLE_TASK,Exp1_SingleTask_ToTi_Subj24-32,21,350,404,m,0,LONG,1
SINGLE_TASK,Exp1_SingleTask_ToTi_Subj24-32,21,100,404,m,0,SHORT,1
SINGLE_TASK,Exp1_SingleTask_ToTi_Subj24-32,29,350,404,m,0,LONG,1
SINGLE_TASK,Exp1_SingleTask_ToTi_Subj24-32,7,350,404,z,0,LONG,1
SINGLE_TASK,Exp1_SingleTask_TiTo_Subj17-24,20,150,404,z,100,SHORT,1
SINGLE_TASK,Exp1_SingleTask_TiTo_Subj17-24,23,100,404,m,100,SHORT,1
SINGLE_TASK,Exp1_SingleTask_TiTo_Subj17-24,23,100,404,z,100,SHORT,1
SINGLE_TASK,Exp1_SingleTask_TiTo_Subj17-24,24,350,404,z,100,LONG,1
SINGLE_TASK,Exp1_SingleTask_ToTi_Subj24-32,29,300,404,m,100,LONG,1
SINGLE_TASK,Exp1_SingleTask_ToTi_Subj24-32,31,300,404,z,100,LONG,1
SINGLE_TASK,Exp1_SingleTask_TiTo_Subj17-24,2,350,405,m,0,LONG,1
SINGLE_TASK,Exp1_SingleTask_TiTo_Subj17-24,2,100,405,m,0,SHORT,1
SINGLE_TASK,Exp1_SingleTask_TiTo_Subj17-24,20,350,405,z,0,LONG,1
SINGLE_TASK,Exp1_SingleTask_TiTo_Subj17-24,23,150,405,m,0,SHORT,1
SINGLE_TASK,Exp1_SingleTask_TiTo_Subj17-24,23,150,405,m,0,SHORT,1
SINGLE_TASK,Exp1_SingleTask_TiTo_Subj17-24,3,350,405,m,0,LONG,1
SINGLE_TASK,Exp1_SingleTask_TiTo_Subj17-24,5,150,405,m,0,SHORT,1
SINGLE_TASK,Exp1_SingleTask_ToTi_Subj24-32,21,300,405,z,0,LONG,1
SINGLE_TASK,Exp1_SingleTask_ToTi_Subj24-32,21,150,405,m,0,SHORT,1
SINGLE_TASK,Exp1_SingleTask_ToTi_Subj24-32,29,100,405,m,0,SHORT,1
SINGLE_TASK,Exp1_SingleTask_ToTi_Subj24-32,29,350,405,z,0,LONG,1
SINGLE_TASK,Exp1_SingleTask_ToTi_Subj24-32,31,100,405,m,0,SHORT,1
SINGLE_TASK,Exp1_SingleTask_ToTi_Subj24-32,31,350,405,m,0,LONG,1
SINGLE_TASK,Exp1_SingleTask_ToTi_Subj24-32,6,300,405,z,0,LONG,1
SINGLE_TASK,Exp1_SingleTask_ToTi_Subj24-32,7,300,405,z,0,LONG,1
SINGLE_TASK,Exp1_SingleTask_TiTo_Subj17-24,2,300,405,m,100,LONG,1
SINGLE_TASK,Exp1_SingleTask_TiTo_Subj17-24,20,300,405,m,100,LONG,1
SINGLE_TASK,Exp1_SingleTask_TiTo_Subj17-24,20,350,405,m,100,LONG,1
SINGLE_TASK,Exp1_SingleTask_TiTo_Subj17-24,23,300,405,z,100,LONG,1
SINGLE_TASK,Exp1_SingleTask_TiTo_Subj17-24,23,350,405,m,100,LONG,1
SINGLE_TASK,Exp1_SingleTask_TiTo_Subj17-24,24,150,405,z,100,SHORT,1
SINGLE_TASK,Exp1_SingleTask_ToTi_Subj24-32,31,150,405,z,100,SHORT,1
SINGLE_TASK,Exp1_SingleTask_ToTi_Subj24-32,31,350,405,z,100,LONG,1
DUAL_TASK,Exp1_DualTask_TiTo_Subj1-8,8,100,405,z,100,SHORT,1
SINGLE_TASK,Exp1_SingleTask_TiTo_Subj17-24,1,300,406,z,0,LONG,1
SINGLE_TASK,Exp1_SingleTask_TiTo_Subj17-24,2,350,406,m,0,LONG,1
SINGLE_TASK,Exp1_SingleTask_TiTo_Subj17-24,2,100,406,m,0,SHORT,1
SINGLE_TASK,Exp1_SingleTask_TiTo_Subj17-24,23,350,406,m,0,LONG,1
SINGLE_TASK,Exp1_SingleTask_TiTo_Subj17-24,23,300,406,z,0,LONG,1
SINGLE_TASK,Exp1_SingleTask_TiTo_Subj17-24,23,100,406,z,0,SHORT,1
SINGLE_TASK,Exp1_SingleTask_TiTo_Subj17-24,23,100,406,z,0,SHORT,1
SINGLE_TASK,Exp1_SingleTask_ToTi_Subj24-32,21,300,406,m,0,LONG,1
SINGLE_TASK,Exp1_SingleTask_ToTi_Subj24-32,29,300,406,z,0,LONG,1
SINGLE_TASK,Exp1_SingleTask_ToTi_Subj24-32,29,350,406,m,0,LONG,1
SINGLE_TASK,Exp1_SingleTask_ToTi_Subj24-32,29,150,406,z,0,SHORT,1
SINGLE_TASK,Exp1_SingleTask_ToTi_Subj24-32,29,150,406,m,0,SHORT,1
SINGLE_TASK,Exp1_SingleTask_ToTi_Subj24-32,7,350,406,m,0,LONG,1
DUAL_TASK,Exp1_DualTask_ToTi_Subj9-16,28,350,406,z,0,LONG,1
SINGLE_TASK,Exp1_SingleTask_TiTo_Subj17-24,1,300,406,m,100,LONG,1
SINGLE_TASK,Exp1_SingleTask_TiTo_Subj17-24,20,150,406,m,100,SHORT,1
SINGLE_TASK,Exp1_SingleTask_TiTo_Subj17-24,23,350,406,z,100,LONG,1
SINGLE_TASK,Exp1_SingleTask_TiTo_Subj17-24,23,350,406,m,100,LONG,1
SINGLE_TASK,Exp1_SingleTask_ToTi_Subj24-32,21,150,406,m,100,SHORT,1
SINGLE_TASK,Exp1_SingleTask_ToTi_Subj24-32,7,150,406,m,100,SHORT,1
DUAL_TASK,Exp1_DualTask_ToTi_Subj9-16,28,300,406,z,100,LONG,1
SINGLE_TASK,Exp1_SingleTask_TiTo_Subj17-24,2,100,407,m,0,SHORT,1
SINGLE_TASK,Exp1_SingleTask_TiTo_Subj17-24,20,300,407,m,0,LONG,1
SINGLE_TASK,Exp1_SingleTask_TiTo_Subj17-24,23,350,407,z,0,LONG,1
SINGLE_TASK,Exp1_SingleTask_TiTo_Subj17-24,4,350,407,m,0,LONG,1
SINGLE_TASK,Exp1_SingleTask_ToTi_Subj24-32,21,300,407,m,0,LONG,1
SINGLE_TASK,Exp1_SingleTask_ToTi_Subj24-32,29,300,407,m,0,LONG,1
SINGLE_TASK,Exp1_SingleTask_ToTi_Subj24-32,31,100,407,z,0,SHORT,1
SINGLE_TASK,Exp1_SingleTask_ToTi_Subj24-32,7,350,407,m,0,LONG,1
SINGLE_TASK,Exp1_SingleTask_TiTo_Subj17-24,2,350,407,m,100,LONG,1
SINGLE_TASK,Exp1_SingleTask_TiTo_Subj17-24,20,150,407,z,100,SHORT,1
SINGLE_TASK,Exp1_SingleTask_TiTo_Subj17-24,23,300,407,z,100,LONG,1
SINGLE_TASK,Exp1_SingleTask_ToTi_Subj24-32,29,350,407,z,100,LONG,1
SINGLE_TASK,Exp1_SingleTask_ToTi_Subj24-32,31,300,407,z,100,LONG,1
SINGLE_TASK,Exp1_SingleTask_ToTi_Subj24-32,6,350,407,z,100,LONG,1
SINGLE_TASK,Exp1_SingleTask_ToTi_Subj24-32,7,350,407,m,100,LONG,1
DUAL_TASK,Exp1_DualTask_ToTi_Subj9-16,16,100,407,m,100,SHORT,1
SINGLE_TASK,Exp1_SingleTask_TiTo_Subj17-24,2,300,408,m,0,LONG,1
SINGLE_TASK,Exp1_SingleTask_TiTo_Subj17-24,2,300,408,z,0,LONG,1
SINGLE_TASK,Exp1_SingleTask_TiTo_Subj17-24,2,300,408,m,0,LONG,1
SINGLE_TASK,Exp1_SingleTask_TiTo_Subj17-24,2,350,408,m,0,LONG,1
SINGLE_TASK,Exp1_SingleTask_TiTo_Subj17-24,20,300,408,z,0,LONG,1
SINGLE_TASK,Exp1_SingleTask_TiTo_Subj17-24,23,300,408,m,0,LONG,1
SINGLE_TASK,Exp1_SingleTask_TiTo_Subj17-24,23,350,408,m,0,LONG,1
SINGLE_TASK,Exp1_SingleTask_TiTo_Subj17-24,23,300,408,m,0,LONG,1
SINGLE_TASK,Exp1_SingleTask_TiTo_Subj17-24,23,100,408,m,0,SHORT,1
SINGLE_TASK,Exp1_SingleTask_TiTo_Subj17-24,3,350,408,m,0,LONG,1
SINGLE_TASK,Exp1_SingleTask_ToTi_Subj24-32,21,150,408,z,0,SHORT,1
SINGLE_TASK,Exp1_SingleTask_ToTi_Subj24-32,21,150,408,z,0,SHORT,1
SINGLE_TASK,Exp1_SingleTask_ToTi_Subj24-32,29,150,408,m,0,SHORT,1
SINGLE_TASK,Exp1_SingleTask_ToTi_Subj24-32,29,100,408,m,0,SHORT,1
SINGLE_TASK,Exp1_SingleTask_ToTi_Subj24-32,9,300,408,z,0,LONG,1
DUAL_TASK,Exp1_DualTask_ToTi_Subj9-16,28,100,408,z,0,SHORT,1
SINGLE_TASK,Exp1_SingleTask_TiTo_Subj17-24,1,300,408,z,100,LONG,1
SINGLE_TASK,Exp1_SingleTask_TiTo_Subj17-24,23,350,408,m,100,LONG,1
SINGLE_TASK,Exp1_SingleTask_TiTo_Subj17-24,23,300,408,z,100,LONG,1
SINGLE_TASK,Exp1_SingleTask_TiTo_Subj17-24,23,350,408,z,100,LONG,1
SINGLE_TASK,Exp1_SingleTask_TiTo_Subj17-24,23,100,408,z,100,SHORT,1
SINGLE_TASK,Exp1_SingleTask_ToTi_Subj24-32,21,350,408,m,100,LONG,1
SINGLE_TASK,Exp1_SingleTask_ToTi_Subj24-32,21,100,408,z,100,SHORT,1
SINGLE_TASK,Exp1_SingleTask_ToTi_Subj24-32,29,350,408,z,100,LONG,1
SINGLE_TASK,Exp1_SingleTask_ToTi_Subj24-32,31,150,408,m,100,SHORT,1
SINGLE_TASK,Exp1_SingleTask_ToTi_Subj24-32,6,300,408,m,100,LONG,1
DUAL_TASK,Exp1_DualTask_ToTi_Subj9-16,28,100,408,z,100,SHORT,1
SINGLE_TASK,Exp1_SingleTask_TiTo_Subj17-24,2,300,409,z,0,LONG,1
SINGLE_TASK,Exp1_SingleTask_TiTo_Subj17-24,20,100,409,z,0,SHORT,1
SINGLE_TASK,Exp1_SingleTask_TiTo_Subj17-24,23,300,409,z,0,LONG,1
SINGLE_TASK,Exp1_SingleTask_TiTo_Subj17-24,23,300,409,z,0,LONG,1
SINGLE_TASK,Exp1_SingleTask_TiTo_Subj17-24,23,150,409,m,0,SHORT,1
SINGLE_TASK,Exp1_SingleTask_TiTo_Subj17-24,23,100,409,z,0,SHORT,1
SINGLE_TASK,Exp1_SingleTask_ToTi_Subj24-32,21,300,409,z,0,LONG,1
SINGLE_TASK,Exp1_SingleTask_ToTi_Subj24-32,29,300,409,m,0,LONG,1
SINGLE_TASK,Exp1_SingleTask_ToTi_Subj24-32,31,100,409,z,0,SHORT,1
SINGLE_TASK,Exp1_SingleTask_ToTi_Subj24-32,31,150,409,m,0,SHORT,1
SINGLE_TASK,Exp1_SingleTask_ToTi_Subj24-32,7,350,409,m,0,LONG,1
DUAL_TASK,Exp1_DualTask_ToTi_Subj9-16,16,100,409,z,0,SHORT,1
SINGLE_TASK,Exp1_SingleTask_TiTo_Subj17-24,20,350,409,m,100,LONG,1
SINGLE_TASK,Exp1_SingleTask_TiTo_Subj17-24,23,100,410,z,0,SHORT,1
SINGLE_TASK,Exp1_SingleTask_TiTo_Subj17-24,23,350,410,m,0,LONG,1
SINGLE_TASK,Exp1_SingleTask_TiTo_Subj17-24,23,300,410,m,0,LONG,1
SINGLE_TASK,Exp1_SingleTask_ToTi_Subj24-32,29,100,410,m,0,SHORT,1
SINGLE_TASK,Exp1_SingleTask_ToTi_Subj24-32,29,100,410,m,0,SHORT,1
SINGLE_TASK,Exp1_SingleTask_TiTo_Subj17-24,3,150,410,m,100,SHORT,1
SINGLE_TASK,Exp1_SingleTask_ToTi_Subj24-32,29,300,410,m,100,LONG,1
SINGLE_TASK,Exp1_SingleTask_ToTi_Subj24-32,29,150,410,m,100,SHORT,1
SINGLE_TASK,Exp1_SingleTask_ToTi_Subj24-32,29,350,410,m,100,LONG,1
SINGLE_TASK,Exp1_SingleTask_ToTi_Subj24-32,31,300,410,m,100,LONG,1
SINGLE_TASK,Exp1_SingleTask_TiTo_Subj17-24,2,150,411,m,0,SHORT,1
SINGLE_TASK,Exp1_SingleTask_TiTo_Subj17-24,23,300,411,m,0,LONG,1
SINGLE_TASK,Exp1_SingleTask_TiTo_Subj17-24,23,100,411,m,0,SHORT,1
SINGLE_TASK,Exp1_SingleTask_TiTo_Subj17-24,23,300,411,m,0,LONG,1
SINGLE_TASK,Exp1_SingleTask_ToTi_Subj24-32,21,100,411,m,0,SHORT,1
SINGLE_TASK,Exp1_SingleTask_ToTi_Subj24-32,29,150,411,z,0,SHORT,1
SINGLE_TASK,Exp1_SingleTask_ToTi_Subj24-32,29,150,411,m,0,SHORT,1
SINGLE_TASK,Exp1_SingleTask_ToTi_Subj24-32,31,300,411,z,0,LONG,1
DUAL_TASK,Exp1_DualTask_TiTo_Subj1-8,22,350,411,m,0,LONG,1
DUAL_TASK,Exp1_DualTask_TiTo_Subj1-8,22,350,411,m,0,LONG,1
SINGLE_TASK,Exp1_SingleTask_TiTo_Subj17-24,23,150,411,z,100,SHORT,1
SINGLE_TASK,Exp1_SingleTask_TiTo_Subj17-24,23,150,411,m,100,SHORT,1
SINGLE_TASK,Exp1_SingleTask_TiTo_Subj17-24,4,150,411,z,100,SHORT,1
SINGLE_TASK,Exp1_SingleTask_ToTi_Subj24-32,21,300,411,m,100,LONG,1
SINGLE_TASK,Exp1_SingleTask_ToTi_Subj24-32,21,150,411,z,100,SHORT,1
SINGLE_TASK,Exp1_SingleTask_ToTi_Subj24-32,29,300,411,m,100,LONG,1
SINGLE_TASK,Exp1_SingleTask_ToTi_Subj24-32,31,350,411,z,100,LONG,1
SINGLE_TASK,Exp1_SingleTask_ToTi_Subj24-32,31,350,411,m,100,LONG,1
SINGLE_TASK,Exp1_SingleTask_ToTi_Subj24-32,31,300,411,z,100,LONG,1
SINGLE_TASK,Exp1_SingleTask_ToTi_Subj24-32,7,300,411,z,100,LONG,1
SINGLE_TASK,Exp1_SingleTask_TiTo_Subj17-24,2,350,412,m,0,LONG,1
SINGLE_TASK,Exp1_SingleTask_TiTo_Subj17-24,23,100,412,m,0,SHORT,1
SINGLE_TASK,Exp1_SingleTask_TiTo_Subj17-24,23,100,412,z,0,SHORT,1
SINGLE_TASK,Exp1_SingleTask_TiTo_Subj17-24,4,150,412,z,0,SHORT,1
SINGLE_TASK,Exp1_SingleTask_ToTi_Subj24-32,29,300,412,z,0,LONG,1
SINGLE_TASK,Exp1_SingleTask_ToTi_Subj24-32,31,350,412,z,0,LONG,1
SINGLE_TASK,Exp1_SingleTask_ToTi_Subj24-32,7,350,412,z,0,LONG,1
