ExperimentName,Subject,AgeSubj,HandenesSubj,Procedure[Block],CueDur[Trial],RespExpTask1.CRESP[Trial],RespTARGET.RT[Trial],SOA[Trial],Target[Trial],RespExpTask1_RESP_CORR,CueDur_SL
Exp1_SingleTask_TiTo_Subj17-24,1,22,sx,BlockProc1,100,m,720,0,7,m,SHORT
Exp1_SingleTask_TiTo_Subj17-24,1,22,sx,BlockProc1,100,z,648,100,3,z,SHORT
Exp1_SingleTask_TiTo_Subj17-24,1,22,sx,BlockProc1,300,z,685,100,4,z,LONG
Exp1_SingleTask_TiTo_Subj17-24,1,22,sx,BlockProc1,350,z,480,0,4,z,LONG
Exp1_SingleTask_TiTo_Subj17-24,1,22,sx,BlockProc1,100,m,653,100,8,m,SHORT
Exp1_SingleTask_TiTo_Subj17-24,1,22,sx,BlockProc1,150,m,616,0,7,m,SHORT
Exp1_SingleTask_TiTo_Subj17-24,1,22,sx,BlockProc1,350,z,588,100,4,z,LONG
Exp1_SingleTask_TiTo_Subj17-24,1,22,sx,BlockProc1,100,m,749,100,6,m,SHORT
Exp1_SingleTask_TiTo_Subj17-24,1,22,sx,BlockProc1,100,z,646,0,4,z,SHORT
Exp1_SingleTask_TiTo_Subj17-24,1,22,sx,BlockProc1,100,z,697,0,2,z,SHORT
Exp1_SingleTask_TiTo_Subj17-24,1,22,sx,BlockProc1,300,m,602,0,6,z,LONG
Exp1_SingleTask_TiTo_Subj17-24,1,22,sx,BlockProc1,300,m,613,0,7,m,LONG
Exp1_SingleTask_TiTo_Subj17-24,1,22,sx,BlockProc1,150,z,749,0,3,z,SHORT
Exp1_SingleTask_TiTo_Subj17-24,1,22,sx,BlockProc1,300,m,659,0,8,m,LONG
Exp1_SingleTask_TiTo_Subj17-24,1,22,sx,BlockProc1,150,z,704,0,2,z,SHORT
Exp1_SingleTask_TiTo_Subj17-24,1,22,sx,BlockProc1,100,z,807,100,4,z,SHORT
Exp1_SingleTask_TiTo_Subj17-24,1,22,sx,BlockProc1,150,m,689,0,6,m,SHORT
Exp1_SingleTask_TiTo_Subj17-24,1,22,sx,BlockProc1,350,z,517,100,3,z,LONG
Exp1_SingleTask_TiTo_Subj17-24,1,22,sx,BlockProc1,150,m,717,0,8,m,SHORT
Exp1_SingleTask_TiTo_Subj17-24,1,22,sx,BlockProc1,150,z,361,100,3,z,SHORT
Exp1_SingleTask_TiTo_Subj17-24,1,22,sx,BlockProc1,300,z,599,100,2,z,LONG
Exp1_SingleTask_TiTo_Subj17-24,1,22,sx,BlockProc1,100,m,727,0,6,m,SHORT
Exp1_SingleTask_TiTo_Subj17-24,1,22,sx,BlockProc1,100,m,650,0,8,m,SHORT
Exp1_SingleTask_TiTo_Subj17-24,1,22,sx,BlockProc1,100,z,316,0,3,z,SHORT
Exp1_SingleTask_TiTo_Subj17-24,1,22,sx,BlockProc1,300,z,636,100,3,z,LONG
Exp1_SingleTask_TiTo_Subj17-24,1,22,sx,BlockProc1,300,m,540,100,8,m,LONG
Exp1_SingleTask_TiTo_Subj17-24,1,22,sx,BlockProc1,100,z,658,100,2,z,SHORT
Exp1_SingleTask_TiTo_Subj17-24,1,22,sx,BlockProc1,350,m,563,100,8,m,LONG
Exp1_SingleTask_TiTo_Subj17-24,1,22,sx,BlockProc1,300,m,832,100,7,m,LONG
Exp1_SingleTask_TiTo_Subj17-24,1,22,sx,BlockProc1,350,m,625,100,7,m,LONG
Exp1_SingleTask_TiTo_Subj17-24,1,22,sx,BlockProc1,300,z,625,0,2,z,LONG
Exp1_SingleTask_TiTo_Subj17-24,1,22,sx,BlockProc1,350,z,655,100,2,z,LONG
Exp1_SingleTask_TiTo_Subj17-24,1,22,sx,BlockProc1,350,m,527,0,8,m,LONG
Exp1_SingleTask_TiTo_Subj17-24,1,22,sx,BlockProc1,350,z,526,0,2,z,LONG
Exp1_SingleTask_TiTo_Subj17-24,1,22,sx,BlockProc1,150,z,276,0,4,z,SHORT
Exp1_SingleTask_TiTo_Subj17-24,1,22,sx,BlockProc1,350,m,425,100,6,m,LONG
Exp1_SingleTask_TiTo_Subj17-24,1,22,sx,BlockProc1,300,m,406,100,6,m,LONG
Exp1_SingleTask_TiTo_Subj17-24,1,22,sx,BlockProc1,350,m,524,0,6,m,LONG
Exp1_SingleTask_TiTo_Subj17-24,1,22,sx,BlockProc1,350,m,564,0,7,m,LONG
Exp1_SingleTask_TiTo_Subj17-24,1,22,sx,BlockProc1,150,z,666,100,2,z,SHORT
Exp1_SingleTask_TiTo_Subj17-24,1,22,sx,BlockProc1,150,m,682,100,8,m,SHORT
Exp1_SingleTask_TiTo_Subj17-24,1,22,sx,BlockProc1,150,m,408,100,7,z,SHORT
Exp1_SingleTask_TiTo_Subj17-24,1,22,sx,BlockProc1,300,z,643,0,4,z,LONG
Exp1_SingleTask_TiTo_Subj17-24,1,22,sx,BlockProc1,100,m,731,100,7,m,SHORT
Exp1_SingleTask_TiTo_Subj17-24,1,22,sx,BlockProc1,150,z,893,100,4,z,SHORT
Exp1_SingleTask_TiTo_Subj17-24,1,22,sx,BlockProc1,150,m,384,100,6,m,SHORT
Exp1_SingleTask_TiTo_Subj17-24,1,22,sx,BlockProc1,300,z,604,0,3,z,LONG
Exp1_SingleTask_TiTo_Subj17-24,1,22,sx,BlockProc1,350,z,596,0,3,z,LONG
Exp1_SingleTask_TiTo_Subj17-24,1,22,sx,BlockProc1,350,m,624,100,8,m,LONG
Exp1_SingleTask_TiTo_Subj17-24,1,22,sx,BlockProc1,150,z,786,0,4,z,SHORT
Exp1_SingleTask_TiTo_Subj17-24,1,22,sx,BlockProc1,100,z,912,100,4,z,SHORT
Exp1_SingleTask_TiTo_Subj17-24,1,22,sx,BlockProc1,300,z,664,100,4,z,LONG
Exp1_SingleTask_TiTo_Subj17-24,1,22,sx,BlockProc1,300,m,538,0,7,m,LONG
Exp1_SingleTask_TiTo_Subj17-24,1,22,sx,BlockProc1,300,m,255,100,6,m,LONG
Exp1_SingleTask_TiTo_Subj17-24,1,22,sx,BlockProc1,150,z,619,0,2,z,SHORT
Exp1_SingleTask_TiTo_Subj17-24,1,22,sx,BlockProc1,150,z,307,0,3,z,SHORT
Exp1_SingleTask_TiTo_Subj17-24,1,22,sx,BlockProc1,100,m,568,0,7,m,SHORT
Exp1_SingleTask_TiTo_Subj17-24,1,22,sx,BlockProc1,150,z,676,100,4,z,SHORT
Exp1_SingleTask_TiTo_Subj17-24,1,22,sx,BlockProc1,150,m,617,100,7,m,SHORT
Exp1_SingleTask_TiTo_Subj17-24,1,22,sx,BlockProc1,100,z,708,100,3,z,SHORT
Exp1_SingleTask_TiTo_Subj17-24,1,22,sx,BlockProc1,300,z,574,0,3,z,LONG
Exp1_SingleTask_TiTo_Subj17-24,1,22,sx,BlockProc1,150,m,337,100,6,m,SHORT
Exp1_SingleTask_TiTo_Subj17-24,1,22,sx,BlockProc1,300,m,576,100,7,m,LONG
Exp1_SingleTask_TiTo_Subj17-24,1,22,sx,BlockProc1,300,m,630,0,6,{SPACE},LONG
Exp1_SingleTask_TiTo_Subj17-24,1,22,sx,BlockProc1,350,m,644,100,7,m,LONG
Exp1_SingleTask_TiTo_Subj17-24,1,22,sx,BlockProc1,100,m,614,0,6,m,SHORT
Exp1_SingleTask_TiTo_Subj17-24,1,22,sx,BlockProc1,150,m,721,0,6,m,SHORT
Exp1_SingleTask_TiTo_Subj17-24,1,22,sx,BlockProc1,100,z,658,0,4,z,SHORT
Exp1_SingleTask_TiTo_Subj17-24,1,22,sx,BlockProc1,350,m,508,0,7,m,LONG
Exp1_SingleTask_TiTo_Subj17-24,1,22,sx,BlockProc1,100,m,936,100,6,m,SHORT
Exp1_SingleTask_TiTo_Subj17-24,1,22,sx,BlockProc1,350,z,549,100,4,z,LONG
Exp1_SingleTask_TiTo_Subj17-24,1,22,sx,BlockProc1,100,z,1071,0,2,z,SHORT
Exp1_SingleTask_TiTo_Subj17-24,1,22,sx,BlockProc1,350,m,767,100,6,m,LONG
Exp1_SingleTask_TiTo_Subj17-24,1,22,sx,BlockProc1,350,m,534,0,6,m,LONG
Exp1_SingleTask_TiTo_Subj17-24,1,22,sx,BlockProc1,350,z,1376,100,2,z,LONG
Exp1_SingleTask_TiTo_Subj17-24,1,22,sx,BlockProc1,150,m,804,0,7,m,SHORT
Exp1_SingleTask_TiTo_Subj17-24,1,22,sx,BlockProc1,350,m,633,0,8,m,LONG
Exp1_SingleTask_TiTo_Subj17-24,1,22,sx,BlockProc1,350,z,225,100,3,z,LONG
Exp1_SingleTask_TiTo_Subj17-24,1,22,sx,BlockProc1,300,m,400,0,8,m,LONG
Exp1_SingleTask_TiTo_Subj17-24,1,22,sx,BlockProc1,150,z,760,100,2,z,SHORT
Exp1_SingleTask_TiTo_Subj17-24,1,22,sx,BlockProc1,150,z,687,100,3,z,SHORT
Exp1_SingleTask_TiTo_Subj17-24,1,22,sx,BlockProc1,100,z,695,0,3,z,SHORT
Exp1_SingleTask_TiTo_Subj17-24,1,22,sx,BlockProc1,100,m,284,0,8,m,SHORT
Exp1_SingleTask_TiTo_Subj17-24,1,22,sx,BlockProc1,150,m,555,100,8,m,SHORT
Exp1_SingleTask_TiTo_Subj17-24,1,22,sx,BlockProc1,300,z,653,0,2,z,LONG
Exp1_SingleTask_TiTo_Subj17-24,1,22,sx,BlockProc1,100,z,872,100,2,z,SHORT
Exp1_SingleTask_TiTo_Subj17-24,1,22,sx,BlockProc1,100,m,310,100,7,m,SHORT
Exp1_SingleTask_TiTo_Subj17-24,1,22,sx,BlockProc1,350,z,673,0,2,z,LONG
Exp1_SingleTask_TiTo_Subj17-24,1,22,sx,BlockProc1,300,z,653,100,2,z,LONG
Exp1_SingleTask_TiTo_Subj17-24,1,22,sx,BlockProc1,350,z,373,0,3,z,LONG
Exp1_SingleTask_TiTo_Subj17-24,1,22,sx,BlockProc1,150,m,681,0,8,m,SHORT
Exp1_SingleTask_TiTo_Subj17-24,1,22,sx,BlockProc1,350,z,633,0,4,z,LONG
Exp1_SingleTask_TiTo_Subj17-24,1,22,sx,BlockProc1,300,z,695,100,3,z,LONG
Exp1_SingleTask_TiTo_Subj17-24,1,22,sx,BlockProc1,300,z,627,0,4,z,LONG
Exp1_SingleTask_TiTo_Subj17-24,1,22,sx,BlockProc1,300,m,609,100,8,m,LONG
Exp1_SingleTask_TiTo_Subj17-24,1,22,sx,BlockProc1,100,m,513,100,8,m,SHORT
Exp1_SingleTask_TiTo_Subj17-24,1,22,sx,BlockProc1,300,m,667,0,7,m,LONG
Exp1_SingleTask_TiTo_Subj17-24,1,22,sx,BlockProc1,100,z,696,0,3,z,SHORT
Exp1_SingleTask_TiTo_Subj17-24,1,22,sx,BlockProc1,350,m,584,0,8,m,LONG
Exp1_SingleTask_TiTo_Subj17-24,1,22,sx,BlockProc1,350,m,641,100,7,space,LONG
Exp1_SingleTask_TiTo_Subj17-24,1,22,sx,BlockProc1,150,z,736,0,3,{SPACE},SHORT
Exp1_SingleTask_TiTo_Subj17-24,1,22,sx,BlockProc1,300,m,762,100,6,m,LONG
Exp1_SingleTask_TiTo_Subj17-24,1,22,sx,BlockProc1,100,z,158,0,2,z,SHORT
Exp1_SingleTask_TiTo_Subj17-24,1,22,sx,BlockProc1,100,z,888,100,4,z,SHORT
Exp1_SingleTask_TiTo_Subj17-24,1,22,sx,BlockProc1,350,z,679,0,3,z,LONG
Exp1_SingleTask_TiTo_Subj17-24,1,22,sx,BlockProc1,350,z,688,0,4,z,LONG
Exp1_SingleTask_TiTo_Subj17-24,1,22,sx,BlockProc1,300,z,408,100,4,z,LONG
Exp1_SingleTask_TiTo_Subj17-24,1,22,sx,BlockProc1,150,m,630,0,6,m,SHORT
Exp1_SingleTask_TiTo_Subj17-24,1,22,sx,BlockProc1,150,z,733,0,4,z,SHORT
Exp1_SingleTask_TiTo_Subj17-24,1,22,sx,BlockProc1,350,m,505,100,8,m,LONG
Exp1_SingleTask_TiTo_Subj17-24,1,22,sx,BlockProc1,150,z,801,100,4,z,SHORT
Exp1_SingleTask_TiTo_Subj17-24,1,22,sx,BlockProc1,350,m,791,0,6,m,LONG
Exp1_SingleTask_TiTo_Subj17-24,1,22,sx,BlockProc1,100,z,782,0,4,z,SHORT
Exp1_SingleTask_TiTo_Subj17-24,1,22,sx,BlockProc1,350,z,714,100,3,z,LONG
Exp1_SingleTask_TiTo_Subj17-24,1,22,sx,BlockProc1,300,m,601,100,7,m,LONG
Exp1_SingleTask_TiTo_Subj17-24,1,22,sx,BlockProc1,300,m,687,0,6,m,LONG
Exp1_SingleTask_TiTo_Subj17-24,1,22,sx,BlockProc1,150,z,696,100,3,z,SHORT
Exp1_SingleTask_TiTo_Subj17-24,1,22,sx,BlockProc1,300,m,552,0,8,m,LONG
Exp1_SingleTask_TiTo_Subj17-24,1,22,sx,BlockProc1,150,m,774,100,7,m,SHORT
Exp1_SingleTask_TiTo_Subj17-24,1,22,sx,BlockProc1,350,m,594,0,7,m,LONG
Exp1_SingleTask_TiTo_Subj17-24,1,22,sx,BlockProc1,350,z,634,100,2,z,LONG
Exp1_SingleTask_TiTo_Subj17-24,1,22,sx,BlockProc1,300,z,1086,100,3,z,LONG
Exp1_SingleTask_TiTo_Subj17-24,1,22,sx,BlockProc1,150,m,665,0,8,m,SHORT
Exp1_SingleTask_TiTo_Subj17-24,1,22,sx,BlockProc1,150,z,844,100,2,z,SHORT
Exp1_SingleTask_TiTo_Subj17-24,1,22,sx,BlockProc1,300,z,467,0,2,z,LONG
Exp1_SingleTask_TiTo_Subj17-24,1,22,sx,BlockProc1,100,m,756,0,7,m,SHORT
Exp1_SingleTask_TiTo_Subj17-24,1,22,sx,BlockProc1,100,m,642,100,6,m,SHORT
Exp1_SingleTask_TiTo_Subj17-24,1,22,sx,BlockProc1,150,m,640,0,7,m,SHORT
Exp1_SingleTask_TiTo_Subj17-24,1,22,sx,BlockProc1,300,z,582,0,3,z,LONG
Exp1_SingleTask_TiTo_Subj17-24,1,22,sx,BlockProc1,150,m,867,100,6,m,SHORT
Exp1_SingleTask_TiTo_Subj17-24,1,22,sx,BlockProc1,100,z,798,100,2,z,SHORT
Exp1_SingleTask_TiTo_Subj17-24,1,22,sx,BlockProc1,350,m,782,100,6,m,LONG
Exp1_SingleTask_TiTo_Subj17-24,1,22,sx,BlockProc1,350,z,723,100,4,z,LONG
Exp1_SingleTask_TiTo_Subj17-24,1,22,sx,BlockProc1,300,z,937,100,2,z,LONG
Exp1_SingleTask_TiTo_Subj17-24,1,22,sx,BlockProc1,300,m,849,100,8,m,LONG
Exp1_SingleTask_TiTo_Subj17-24,1,22,sx,BlockProc1,100,m,678,0,8,m,SHORT
Exp1_SingleTask_TiTo_Subj17-24,1,22,sx,BlockProc1,100,z,801,100,3,z,SHORT
Exp1_SingleTask_TiTo_Subj17-24,1,22,sx,BlockProc1,150,z,760,0,2,z,SHORT
Exp1_SingleTask_TiTo_Subj17-24,1,22,sx,BlockProc1,100,m,709,0,6,m,SHORT
Exp1_SingleTask_TiTo_Subj17-24,1,22,sx,BlockProc1,150,m,787,100,8,m,SHORT
Exp1_SingleTask_TiTo_Subj17-24,1,22,sx,BlockProc1,100,m,773,100,8,m,SHORT
Exp1_SingleTask_TiTo_Subj17-24,1,22,sx,BlockProc1,300,z,675,0,4,z,LONG
Exp1_SingleTask_TiTo_Subj17-24,1,22,sx,BlockProc1,100,m,1011,100,7,space,SHORT
Exp1_SingleTask_TiTo_Subj17-24,1,22,sx,BlockProc1,350,z,803,0,2,z,LONG
Exp1_SingleTask_TiTo_Subj17-24,1,22,sx,BlockProc2,300,z,894,0,2,z,LONG
Exp1_SingleTask_TiTo_Subj17-24,1,22,sx,BlockProc2,100,m,576,0,6,m,SHORT
Exp1_SingleTask_TiTo_Subj17-24,1,22,sx,BlockProc2,350,z,633,100,3,z,LONG
Exp1_SingleTask_TiTo_Subj17-24,1,22,sx,BlockProc2,300,z,738,100,4,z,LONG
Exp1_SingleTask_TiTo_Subj17-24,1,22,sx,BlockProc2,150,m,722,100,6,m,SHORT
Exp1_SingleTask_TiTo_Subj17-24,1,22,sx,BlockProc2,350,z,734,0,4,z,LONG
Exp1_SingleTask_TiTo_Subj17-24,1,22,sx,BlockProc2,100,m,622,0,7,m,SHORT
Exp1_SingleTask_TiTo_Subj17-24,1,22,sx,BlockProc2,100,z,799,0,2,z,SHORT
Exp1_SingleTask_TiTo_Subj17-24,1,22,sx,BlockProc2,350,m,648,100,8,m,LONG
Exp1_SingleTask_TiTo_Subj17-24,1,22,sx,BlockProc2,350,m,684,100,7,m,LONG
Exp1_SingleTask_TiTo_Subj17-24,1,22,sx,BlockProc2,100,m,762,100,8,m,SHORT
Exp1_SingleTask_TiTo_Subj17-24,1,22,sx,BlockProc2,350,z,721,100,4,z,LONG
Exp1_SingleTask_TiTo_Subj17-24,1,22,sx,BlockProc2,300,z,743,100,2,z,LONG
Exp1_SingleTask_TiTo_Subj17-24,1,22,sx,BlockProc2,150,m,649,0,8,m,SHORT
Exp1_SingleTask_TiTo_Subj17-24,1,22,sx,BlockProc2,300,m,678,0,7,m,LONG
Exp1_SingleTask_TiTo_Subj17-24,1,22,sx,BlockProc2,100,m,669,0,8,m,SHORT
Exp1_SingleTask_TiTo_Subj17-24,1,22,sx,BlockProc2,300,z,512,0,3,z,LONG
Exp1_SingleTask_TiTo_Subj17-24,1,22,sx,BlockProc2,150,m,1000,0,7,m,SHORT
Exp1_SingleTask_TiTo_Subj17-24,1,22,sx,BlockProc2,100,m,670,100,7,m,SHORT
Exp1_SingleTask_TiTo_Subj17-24,1,22,sx,BlockProc2,150,z,726,100,4,z,SHORT
Exp1_SingleTask_TiTo_Subj17-24,1,22,sx,BlockProc2,350,m,582,0,8,m,LONG
Exp1_SingleTask_TiTo_Subj17-24,1,22,sx,BlockProc2,150,z,884,100,2,z,SHORT
Exp1_SingleTask_TiTo_Subj17-24,1,22,sx,BlockProc2,100,z,781,100,4,z,SHORT
Exp1_SingleTask_TiTo_Subj17-24,1,22,sx,BlockProc2,300,m,581,100,6,m,LONG
Exp1_SingleTask_TiTo_Subj17-24,1,22,sx,BlockProc2,150,m,754,100,8,m,SHORT
Exp1_SingleTask_TiTo_Subj17-24,1,22,sx,BlockProc2,350,z,626,100,2,z,LONG
Exp1_SingleTask_TiTo_Subj17-24,1,22,sx,BlockProc2,100,z,784,0,4,z,SHORT
Exp1_SingleTask_TiTo_Subj17-24,1,22,sx,BlockProc2,300,m,593,0,8,m,LONG
Exp1_SingleTask_TiTo_Subj17-24,1,22,sx,BlockProc2,100,z,689,0,3,z,SHORT
Exp1_SingleTask_TiTo_Subj17-24,1,22,sx,BlockProc2,300,m,648,100,8,m,LONG
Exp1_SingleTask_TiTo_Subj17-24,1,22,sx,BlockProc2,150,m,778,100,7,m,SHORT
Exp1_SingleTask_TiTo_Subj17-24,1,22,sx,BlockProc2,150,z,684,0,2,z,SHORT
Exp1_SingleTask_TiTo_Subj17-24,1,22,sx,BlockProc2,350,m,527,100,6,m,LONG
Exp1_SingleTask_TiTo_Subj17-24,1,22,sx,BlockProc2,100,z,772,100,2,z,SHORT
Exp1_SingleTask_TiTo_Subj17-24,1,22,sx,BlockProc2,150,z,648,0,4,z,SHORT
Exp1_SingleTask_TiTo_Subj17-24,1,22,sx,BlockProc2,150,m,701,0,6,m,SHORT
Exp1_SingleTask_TiTo_Subj17-24,1,22,sx,BlockProc2,100,m,717,100,6,m,SHORT
Exp1_SingleTask_TiTo_Subj17-24,1,22,sx,BlockProc2,150,z,733,0,3,z,SHORT
Exp1_SingleTask_TiTo_Subj17-24,1,22,sx,BlockProc2,300,m,1004,100,7,m,LONG
Exp1_SingleTask_TiTo_Subj17-24,1,22,sx,BlockProc2,350,m,653,0,7,m,LONG
Exp1_SingleTask_TiTo_Subj17-24,1,22,sx,BlockProc2,350,m,629,0,6,m,LONG
Exp1_SingleTask_TiTo_Subj17-24,1,22,sx,BlockProc2,300,m,599,0,6,m,LONG
Exp1_SingleTask_TiTo_Subj17-24,1,22,sx,BlockProc2,150,z,626,100,3,z,SHORT
Exp1_SingleTask_TiTo_Subj17-24,1,22,sx,BlockProc2,350,z,669,0,2,z,LONG
Exp1_SingleTask_TiTo_Subj17-24,1,22,sx,BlockProc2,100,z,770,100,3,z,SHORT
Exp1_SingleTask_TiTo_Subj17-24,1,22,sx,BlockProc2,300,z,684,100,3,z,LONG
Exp1_SingleTask_TiTo_Subj17-24,1,22,sx,BlockProc2,300,z,738,0,4,z,LONG
Exp1_SingleTask_TiTo_Subj17-24,1,22,sx,BlockProc2,350,z,255,0,3,z,LONG
Exp1_SingleTask_TiTo_Subj17-24,1,22,sx,BlockProc2,100,z,958,100,2,z,SHORT
Exp1_SingleTask_TiTo_Subj17-24,1,22,sx,BlockProc2,100,z,0,100,4,z,SHORT
Exp1_SingleTask_TiTo_Subj17-24,1,22,sx,BlockProc2,150,z,671,100,4,z,SHORT
Exp1_SingleTask_TiTo_Subj17-24,1,22,sx,BlockProc2,300,m,662,0,7,m,LONG
Exp1_SingleTask_TiTo_Subj17-24,1,22,sx,BlockProc2,150,m,340,100,6,m,SHORT
Exp1_SingleTask_TiTo_Subj17-24,1,22,sx,BlockProc2,300,m,422,0,6,m,LONG
Exp1_SingleTask_TiTo_Subj17-24,1,22,sx,BlockProc2,350,m,456,100,7,m,LONG
Exp1_SingleTask_TiTo_Subj17-24,1,22,sx,BlockProc2,100,m,768,100,6,m,SHORT
Exp1_SingleTask_TiTo_Subj17-24,1,22,sx,BlockProc2,300,z,610,0,2,z,LONG
Exp1_SingleTask_TiTo_Subj17-24,1,22,sx,BlockProc2,150,m,631,0,8,m,SHORT
Exp1_SingleTask_TiTo_Subj17-24,1,22,sx,BlockProc2,100,z,920,100,3,z,SHORT
Exp1_SingleTask_TiTo_Subj17-24,1,22,sx,BlockProc2,150,m,713,100,7,m,SHORT
Exp1_SingleTask_TiTo_Subj17-24,1,22,sx,BlockProc2,300,z,680,100,2,z,LONG
Exp1_SingleTask_TiTo_Subj17-24,1,22,sx,BlockProc2,150,z,770,100,3,z,SHORT
Exp1_SingleTask_TiTo_Subj17-24,1,22,sx,BlockProc2,300,z,293,0,3,z,LONG
Exp1_SingleTask_TiTo_Subj17-24,1,22,sx,BlockProc2,150,z,293,0,4,z,SHORT
Exp1_SingleTask_TiTo_Subj17-24,1,22,sx,BlockProc2,350,z,595,0,2,z,LONG
Exp1_SingleTask_TiTo_Subj17-24,1,22,sx,BlockProc2,350,z,463,100,3,z,LONG
Exp1_SingleTask_TiTo_Subj17-24,1,22,sx,BlockProc2,350,z,578,0,4,z,LONG
Exp1_SingleTask_TiTo_Subj17-24,1,22,sx,BlockProc2,100,z,649,0,4,z,SHORT
Exp1_SingleTask_TiTo_Subj17-24,1,22,sx,BlockProc2,350,z,577,0,3,z,LONG
Exp1_SingleTask_TiTo_Subj17-24,1,22,sx,BlockProc2,300,z,406,0,4,z,LONG
Exp1_SingleTask_TiTo_Subj17-24,1,22,sx,BlockProc2,150,z,714,0,2,z,SHORT
Exp1_SingleTask_TiTo_Subj17-24,1,22,sx,BlockProc2,100,m,590,100,7,m,SHORT
Exp1_SingleTask_TiTo_Subj17-24,1,22,sx,BlockProc2,300,z,567,100,4,z,LONG
Exp1_SingleTask_TiTo_Subj17-24,1,22,sx,BlockProc2,100,m,413,0,8,m,SHORT
Exp1_SingleTask_TiTo_Subj17-24,1,22,sx,BlockProc2,300,m,338,100,6,m,LONG
Exp1_SingleTask_TiTo_Subj17-24,1,22,sx,BlockProc2,300,m,772,100,7,m,LONG
Exp1_SingleTask_TiTo_Subj17-24,1,22,sx,BlockProc2,350,m,563,100,8,m,LONG
Exp1_SingleTask_TiTo_Subj17-24,1,22,sx,BlockProc2,350,z,570,100,2,z,LONG
Exp1_SingleTask_TiTo_Subj17-24,1,22,sx,BlockProc2,350,m,664,0,8,m,LONG
Exp1_SingleTask_TiTo_Subj17-24,1,22,sx,BlockProc2,350,m,604,0,7,m,LONG
Exp1_SingleTask_TiTo_Subj17-24,1,22,sx,BlockProc2,100,m,696,100,8,m,SHORT
Exp1_SingleTask_TiTo_Subj17-24,1,22,sx,BlockProc2,350,z,635,100,4,z,LONG
Exp1_SingleTask_TiTo_Subj17-24,1,22,sx,BlockProc2,150,m,656,100,8,m,SHORT
Exp1_SingleTask_TiTo_Subj17-24,1,22,sx,BlockProc2,100,m,639,0,6,m,SHORT
Exp1_SingleTask_TiTo_Subj17-24,1,22,sx,BlockProc2,100,m,604,0,7,m,SHORT
Exp1_SingleTask_TiTo_Subj17-24,1,22,sx,BlockProc2,150,z,673,100,2,z,SHORT
Exp1_SingleTask_TiTo_Subj17-24,1,22,sx,BlockProc2,300,m,671,100,8,m,LONG
Exp1_SingleTask_TiTo_Subj17-24,1,22,sx,BlockProc2,100,z,500,0,3,z,SHORT
Exp1_SingleTask_TiTo_Subj17-24,1,22,sx,BlockProc2,100,z,447,0,2,z,SHORT
Exp1_SingleTask_TiTo_Subj17-24,1,22,sx,BlockProc2,150,m,521,0,7,m,SHORT
Exp1_SingleTask_TiTo_Subj17-24,1,22,sx,BlockProc2,350,m,531,0,6,m,LONG
Exp1_SingleTask_TiTo_Subj17-24,1,22,sx,BlockProc2,150,z,288,0,3,z,SHORT
Exp1_SingleTask_TiTo_Subj17-24,1,22,sx,BlockProc2,300,m,299,0,8,m,LONG
Exp1_SingleTask_TiTo_Subj17-24,1,22,sx,BlockProc2,300,z,672,100,3,z,LONG
Exp1_SingleTask_TiTo_Subj17-24,1,22,sx,BlockProc2,150,m,597,0,6,m,SHORT
Exp1_SingleTask_TiTo_Subj17-24,1,22,sx,BlockProc2,350,m,607,100,6,m,LONG
Exp1_SingleTask_TiTo_Subj17-24,1,22,sx,BlockProc2,150,z,643,0,3,z,SHORT
Exp1_SingleTask_TiTo_Subj17-24,1,22,sx,BlockProc2,350,m,543,100,8,m,LONG
Exp1_SingleTask_TiTo_Subj17-24,1,22,sx,BlockProc2,300,m,656,100,6,m,LONG
Exp1_SingleTask_TiTo_Subj17-24,1,22,sx,BlockProc2,100,m,295,100,8,m,SHORT
Exp1_SingleTask_TiTo_Subj17-24,1,22,sx,BlockProc2,350,m,561,100,7,m,LONG
Exp1_SingleTask_TiTo_Subj17-24,1,22,sx,BlockProc2,300,z,539,0,3,z,LONG
Exp1_SingleTask_TiTo_Subj17-24,1,22,sx,BlockProc2,300,z,365,100,4,z,LONG
Exp1_SingleTask_TiTo_Subj17-24,1,22,sx,BlockProc2,300,z,552,0,4,z,LONG
Exp1_SingleTask_TiTo_Subj17-24,1,22,sx,BlockProc2,150,z,703,100,3,z,SHORT
Exp1_SingleTask_TiTo_Subj17-24,1,22,sx,BlockProc2,150,z,506,100,2,z,SHORT
Exp1_SingleTask_TiTo_Subj17-24,1,22,sx,BlockProc2,100,z,259,0,3,z,SHORT
Exp1_SingleTask_TiTo_Subj17-24,1,22,sx,BlockProc2,350,z,565,0,2,z,LONG
Exp1_SingleTask_TiTo_Subj17-24,1,22,sx,BlockProc2,150,m,605,0,8,m,SHORT
Exp1_SingleTask_TiTo_Subj17-24,1,22,sx,BlockProc2,350,z,570,100,2,z,LONG
Exp1_SingleTask_TiTo_Subj17-24,1,22,sx,BlockProc2,150,z,580,0,2,z,SHORT
Exp1_SingleTask_TiTo_Subj17-24,1,22,sx,BlockProc2,100,m,685,100,7,m,SHORT
Exp1_SingleTask_TiTo_Subj17-24,1,22,sx,BlockProc2,350,z,551,100,3,z,LONG
Exp1_SingleTask_TiTo_Subj17-24,1,22,sx,BlockProc2,100,z,634,100,3,z,SHORT
Exp1_SingleTask_TiTo_Subj17-24,1,22,sx,BlockProc2,300,m,504,100,8,m,LONG
Exp1_SingleTask_TiTo_Subj17-24,1,22,sx,BlockProc2,300,z,594,100,2,z,LONG
Exp1_SingleTask_TiTo_Subj17-24,1,22,sx,BlockProc2,150,m,590,100,7,m,SHORT
Exp1_SingleTask_TiTo_Subj17-24,1,22,sx,BlockProc2,300,z,541,100,3,z,LONG
Exp1_SingleTask_TiTo_Subj17-24,1,22,sx,BlockProc2,350,m,748,0,6,m,LONG
Exp1_SingleTask_TiTo_Subj17-24,1,22,sx,BlockProc2,300,m,683,100,7,m,LONG
Exp1_SingleTask_TiTo_Subj17-24,1,22,sx,BlockProc2,100,m,711,0,7,m,SHORT
Exp1_SingleTask_TiTo_Subj17-24,1,22,sx,BlockProc2,100,z,776,100,4,z,SHORT
Exp1_SingleTask_TiTo_Subj17-24,1,22,sx,BlockProc2,350,z,571,0,3,z,LONG
Exp1_SingleTask_TiTo_Subj17-24,1,22,sx,BlockProc2,150,m,770,0,7,m,SHORT
Exp1_SingleTask_TiTo_Subj17-24,1,22,sx,BlockProc2,100,m,602,0,8,m,SHORT
Exp1_SingleTask_TiTo_Subj17-24,1,22,sx,BlockProc2,300,m,735,0,6,m,LONG
Exp1_SingleTask_TiTo_Subj17-24,1,22,sx,BlockProc2,300,m,549,0,7,m,LONG
Exp1_SingleTask_TiTo_Subj17-24,1,22,sx,BlockProc2,350,z,569,0,4,z,LONG
Exp1_SingleTask_TiTo_Subj17-24,1,22,sx,BlockProc2,150,m,751,0,6,m,SHORT
Exp1_SingleTask_TiTo_Subj17-24,1,22,sx,BlockProc2,100,z,692,0,2,z,SHORT
Exp1_SingleTask_TiTo_Subj17-24,1,22,sx,BlockProc2,350,m,505,0,7,m,LONG
Exp1_SingleTask_TiTo_Subj17-24,1,22,sx,BlockProc2,100,z,728,0,4,z,SHORT
Exp1_SingleTask_TiTo_Subj17-24,1,22,sx,BlockProc2,300,m,567,0,8,m,LONG
Exp1_SingleTask_TiTo_Subj17-24,1,22,sx,BlockProc2,350,z,530,100,4,z,LONG
Exp1_SingleTask_TiTo_Subj17-24,1,22,sx,BlockProc2,100,m,704,100,6,m,SHORT
Exp1_SingleTask_TiTo_Subj17-24,1,22,sx,BlockProc2,150,z,726,100,4,z,SHORT
Exp1_SingleTask_TiTo_Subj17-24,1,22,sx,BlockProc2,350,m,503,0,8,m,LONG
Exp1_SingleTask_TiTo_Subj17-24,1,22,sx,BlockProc2,150,z,690,0,4,z,SHORT
Exp1_SingleTask_TiTo_Subj17-24,1,22,sx,BlockProc2,350,m,707,100,6,m,LONG
Exp1_SingleTask_TiTo_Subj17-24,1,22,sx,BlockProc2,150,m,1007,100,8,m,SHORT
Exp1_SingleTask_TiTo_Subj17-24,1,22,sx,BlockProc2,100,m,1047,0,6,m,SHORT
Exp1_SingleTask_TiTo_Subj17-24,1,22,sx,BlockProc2,300,z,580,0,2,z,LONG
Exp1_SingleTask_TiTo_Subj17-24,1,22,sx,BlockProc2,100,z,675,100,2,z,SHORT
Exp1_SingleTask_TiTo_Subj17-24,1,22,sx,BlockProc2,150,m,717,100,6,m,SHORT
Exp1_SingleTask_TiTo_Subj17-24,1,22,sx,BlockProc3,100,m,315,0,6,m,SHORT
Exp1_SingleTask_TiTo_Subj17-24,1,22,sx,BlockProc3,150,z,585,0,4,z,SHORT
Exp1_SingleTask_TiTo_Subj17-24,1,22,sx,BlockProc3,150,z,617,0,3,z,SHORT
Exp1_SingleTask_TiTo_Subj17-24,1,22,sx,BlockProc3,350,z,602,100,2,z,LONG
Exp1_SingleTask_TiTo_Subj17-24,1,22,sx,BlockProc3,300,m,448,0,8,m,LONG
Exp1_SingleTask_TiTo_Subj17-24,1,22,sx,BlockProc3,150,m,576,100,8,m,SHORT
Exp1_SingleTask_TiTo_Subj17-24,1,22,sx,BlockProc3,350,m,557,0,6,z,LONG
Exp1_SingleTask_TiTo_Subj17-24,1,22,sx,BlockProc3,150,m,682,0,6,m,SHORT
Exp1_SingleTask_TiTo_Subj17-24,1,22,sx,BlockProc3,100,m,440,100,6,m,SHORT
Exp1_SingleTask_TiTo_Subj17-24,1,22,sx,BlockProc3,150,m,608,100,7,m,SHORT
Exp1_SingleTask_TiTo_Subj17-24,1,22,sx,BlockProc3,150,z,623,100,2,z,SHORT
Exp1_SingleTask_TiTo_Subj17-24,1,22,sx,BlockProc3,300,m,601,0,6,m,LONG
Exp1_SingleTask_TiTo_Subj17-24,1,22,sx,BlockProc3,150,z,710,100,4,z,SHORT
Exp1_SingleTask_TiTo_Subj17-24,1,22,sx,BlockProc3,350,z,606,100,3,z,LONG
Exp1_SingleTask_TiTo_Subj17-24,1,22,sx,BlockProc3,100,z,664,0,3,z,SHORT
Exp1_SingleTask_TiTo_Subj17-24,1,22,sx,BlockProc3,300,z,637,100,2,z,LONG
Exp1_SingleTask_TiTo_Subj17-24,1,22,sx,BlockProc3,350,z,597,0,4,z,LONG
Exp1_SingleTask_TiTo_Subj17-24,1,22,sx,BlockProc3,150,z,623,0,2,z,SHORT
Exp1_SingleTask_TiTo_Subj17-24,1,22,sx,BlockProc3,300,z,597,100,3,z,LONG
Exp1_SingleTask_TiTo_Subj17-24,1,22,sx,BlockProc3,300,m,605,100,8,m,LONG
Exp1_SingleTask_TiTo_Subj17-24,1,22,sx,BlockProc3,100,m,683,0,8,m,SHORT
Exp1_SingleTask_TiTo_Subj17-24,1,22,sx,BlockProc3,100,z,656,100,4,z,SHORT
Exp1_SingleTask_TiTo_Subj17-24,1,22,sx,BlockProc3,100,m,614,100,7,m,SHORT
Exp1_SingleTask_TiTo_Subj17-24,1,22,sx,BlockProc3,350,m,757,100,7,z,LONG
Exp1_SingleTask_TiTo_Subj17-24,1,22,sx,BlockProc3,150,z,607,100,3,z,SHORT
Exp1_SingleTask_TiTo_Subj17-24,1,22,sx,BlockProc3,300,z,228,100,4,z,LONG
Exp1_SingleTask_TiTo_Subj17-24,1,22,sx,BlockProc3,300,m,605,100,7,m,LONG
Exp1_SingleTask_TiTo_Subj17-24,1,22,sx,BlockProc3,350,z,556,0,3,z,LONG
Exp1_SingleTask_TiTo_Subj17-24,1,22,sx,BlockProc3,350,m,516,0,8,m,LONG
Exp1_SingleTask_TiTo_Subj17-24,1,22,sx,BlockProc3,150,m,646,0,8,m,SHORT
Exp1_SingleTask_TiTo_Subj17-24,1,22,sx,BlockProc3,300,z,584,0,4,z,LONG
Exp1_SingleTask_TiTo_Subj17-24,1,22,sx,BlockProc3,300,m,598,0,7,m,LONG
Exp1_SingleTask_TiTo_Subj17-24,1,22,sx,BlockProc3,100,z,650,0,2,z,SHORT
Exp1_SingleTask_TiTo_Subj17-24,1,22,sx,BlockProc3,100,z,687,0,4,z,SHORT
Exp1_SingleTask_TiTo_Subj17-24,1,22,sx,BlockProc3,300,z,592,0,2,z,LONG
Exp1_SingleTask_TiTo_Subj17-24,1,22,sx,BlockProc3,350,m,608,100,6,m,LONG
Exp1_SingleTask_TiTo_Subj17-24,1,22,sx,BlockProc3,150,m,733,100,6,m,SHORT
Exp1_SingleTask_TiTo_Subj17-24,1,22,sx,BlockProc3,100,z,729,100,3,z,SHORT
Exp1_SingleTask_TiTo_Subj17-24,1,22,sx,BlockProc3,100,z,758,100,2,z,SHORT
Exp1_SingleTask_TiTo_Subj17-24,1,22,sx,BlockProc3,350,z,510,0,2,z,LONG
Exp1_SingleTask_TiTo_Subj17-24,1,22,sx,BlockProc3,300,m,281,100,6,m,LONG
Exp1_SingleTask_TiTo_Subj17-24,1,22,sx,BlockProc3,100,m,677,100,8,m,SHORT
Exp1_SingleTask_TiTo_Subj17-24,1,22,sx,BlockProc3,150,m,607,0,7,m,SHORT
Exp1_SingleTask_TiTo_Subj17-24,1,22,sx,BlockProc3,350,m,528,100,8,m,LONG
Exp1_SingleTask_TiTo_Subj17-24,1,22,sx,BlockProc3,300,z,521,0,3,z,LONG
Exp1_SingleTask_TiTo_Subj17-24,1,22,sx,BlockProc3,350,z,644,100,4,z,LONG
Exp1_SingleTask_TiTo_Subj17-24,1,22,sx,BlockProc3,100,m,630,0,7,m,SHORT
Exp1_SingleTask_TiTo_Subj17-24,1,22,sx,BlockProc3,350,m,540,0,7,m,LONG
Exp1_SingleTask_TiTo_Subj17-24,1,22,sx,BlockProc3,100,m,653,0,7,m,SHORT
Exp1_SingleTask_TiTo_Subj17-24,1,22,sx,BlockProc3,100,m,773,100,6,m,SHORT
Exp1_SingleTask_TiTo_Subj17-24,1,22,sx,BlockProc3,100,z,627,0,4,z,SHORT
Exp1_SingleTask_TiTo_Subj17-24,1,22,sx,BlockProc3,350,z,493,0,3,z,LONG
Exp1_SingleTask_TiTo_Subj17-24,1,22,sx,BlockProc3,300,z,576,100,3,z,LONG
Exp1_SingleTask_TiTo_Subj17-24,1,22,sx,BlockProc3,350,z,641,100,4,z,LONG
Exp1_SingleTask_TiTo_Subj17-24,1,22,sx,BlockProc3,300,m,609,0,6,m,LONG
Exp1_SingleTask_TiTo_Subj17-24,1,22,sx,BlockProc3,300,z,661,100,2,z,LONG
Exp1_SingleTask_TiTo_Subj17-24,1,22,sx,BlockProc3,350,m,760,0,7,m,LONG
Exp1_SingleTask_TiTo_Subj17-24,1,22,sx,BlockProc3,300,m,596,0,7,m,LONG
Exp1_SingleTask_TiTo_Subj17-24,1,22,sx,BlockProc3,300,m,628,0,8,m,LONG
Exp1_SingleTask_TiTo_Subj17-24,1,22,sx,BlockProc3,300,m,639,100,7,m,LONG
Exp1_SingleTask_TiTo_Subj17-24,1,22,sx,BlockProc3,150,z,1062,0,3,z,SHORT
Exp1_SingleTask_TiTo_Subj17-24,1,22,sx,BlockProc3,350,m,1046,100,7,m,LONG
Exp1_SingleTask_TiTo_Subj17-24,1,22,sx,BlockProc3,100,m,782,0,8,m,SHORT
Exp1_SingleTask_TiTo_Subj17-24,1,22,sx,BlockProc3,100,z,990,100,3,z,SHORT
Exp1_SingleTask_TiTo_Subj17-24,1,22,sx,BlockProc3,100,z,300,100,4,z,SHORT
Exp1_SingleTask_TiTo_Subj17-24,1,22,sx,BlockProc3,150,m,600,100,7,m,SHORT
Exp1_SingleTask_TiTo_Subj17-24,1,22,sx,BlockProc3,300,z,551,0,3,z,LONG
Exp1_SingleTask_TiTo_Subj17-24,1,22,sx,BlockProc3,100,z,742,0,2,z,SHORT
Exp1_SingleTask_TiTo_Subj17-24,1,22,sx,BlockProc3,150,z,781,100,2,z,SHORT
Exp1_SingleTask_TiTo_Subj17-24,1,22,sx,BlockProc3,150,z,646,0,2,z,SHORT
Exp1_SingleTask_TiTo_Subj17-24,1,22,sx,BlockProc3,350,m,555,0,8,m,LONG
Exp1_SingleTask_TiTo_Subj17-24,1,22,sx,BlockProc3,100,m,727,0,6,m,SHORT
Exp1_SingleTask_TiTo_Subj17-24,1,22,sx,BlockProc3,300,z,574,0,4,z,LONG
Exp1_SingleTask_TiTo_Subj17-24,1,22,sx,BlockProc3,100,m,676,100,7,m,SHORT
Exp1_SingleTask_TiTo_Subj17-24,1,22,sx,BlockProc3,150,z,722,100,4,z,SHORT
Exp1_SingleTask_TiTo_Subj17-24,1,22,sx,BlockProc3,350,m,297,0,6,m,LONG
Exp1_SingleTask_TiTo_Subj17-24,1,22,sx,BlockProc3,100,z,1107,0,3,z,SHORT
Exp1_SingleTask_TiTo_Subj17-24,1,22,sx,BlockProc3,350,m,347,100,6,m,LONG
Exp1_SingleTask_TiTo_Subj17-24,1,22,sx,BlockProc3,150,m,923,0,7,m,SHORT
Exp1_SingleTask_TiTo_Subj17-24,1,22,sx,BlockProc3,150,z,714,100,3,z,SHORT
Exp1_SingleTask_TiTo_Subj17-24,1,22,sx,BlockProc3,150,z,769,0,4,z,SHORT
Exp1_SingleTask_TiTo_Subj17-24,1,22,sx,BlockProc3,350,m,548,100,8,m,LONG
Exp1_SingleTask_TiTo_Subj17-24,1,22,sx,BlockProc3,100,z,679,100,2,z,SHORT
Exp1_SingleTask_TiTo_Subj17-24,1,22,sx,BlockProc3,300,z,693,100,4,z,LONG
Exp1_SingleTask_TiTo_Subj17-24,1,22,sx,BlockProc3,100,m,928,100,8,m,SHORT
Exp1_SingleTask_TiTo_Subj17-24,1,22,sx,BlockProc3,150,m,653,0,6,m,SHORT
Exp1_SingleTask_TiTo_Subj17-24,1,22,sx,BlockProc3,350,z,666,100,2,z,LONG
Exp1_SingleTask_TiTo_Subj17-24,1,22,sx,BlockProc3,350,z,879,0,4,z,LONG
Exp1_SingleTask_TiTo_Subj17-24,1,22,sx,BlockProc3,350,z,604,0,2,z,LONG
Exp1_SingleTask_TiTo_Subj17-24,1,22,sx,BlockProc3,150,m,725,100,8,m,SHORT
Exp1_SingleTask_TiTo_Subj17-24,1,22,sx,BlockProc3,350,z,337,100,3,z,LONG
Exp1_SingleTask_TiTo_Subj17-24,1,22,sx,BlockProc3,300,m,673,100,6,m,LONG
Exp1_SingleTask_TiTo_Subj17-24,1,22,sx,BlockProc3,150,m,745,0,8,m,SHORT
Exp1_SingleTask_TiTo_Subj17-24,1,22,sx,BlockProc3,300,m,633,100,8,m,LONG
Exp1_SingleTask_TiTo_Subj17-24,1,22,sx,BlockProc3,300,z,546,0,2,z,LONG
Exp1_SingleTask_TiTo_Subj17-24,1,22,sx,BlockProc3,150,m,568,100,6,m,SHORT
Exp1_SingleTask_TiTo_Subj17-24,1,22,sx,BlockProc3,300,m,539,100,6,m,LONG
Exp1_SingleTask_TiTo_Subj17-24,1,22,sx,BlockProc3,150,z,649,100,3,z,SHORT
Exp1_SingleTask_TiTo_Subj17-24,1,22,sx,BlockProc3,300,z,593,100,3,z,LONG
Exp1_SingleTask_TiTo_Subj17-24,1,22,sx,BlockProc3,350,z,693,0,4,z,LONG
Exp1_SingleTask_TiTo_Subj17-24,1,22,sx,BlockProc3,350,z,608,0,2,z,LONG
Exp1_SingleTask_TiTo_Subj17-24,1,22,sx,BlockProc3,300,z,577,0,2,z,LONG
Exp1_SingleTask_TiTo_Subj17-24,1,22,sx,BlockProc3,300,z,309,100,4,z,LONG
Exp1_SingleTask_TiTo_Subj17-24,1,22,sx,BlockProc3,100,z,374,100,4,z,SHORT
Exp1_SingleTask_TiTo_Subj17-24,1,22,sx,BlockProc3,150,m,914,100,6,m,SHORT
Exp1_SingleTask_TiTo_Subj17-24,1,22,sx,BlockProc3,350,m,647,0,7,m,LONG
Exp1_SingleTask_TiTo_Subj17-24,1,22,sx,BlockProc3,300,m,400,100,7,m,LONG
Exp1_SingleTask_TiTo_Subj17-24,1,22,sx,BlockProc3,350,m,548,0,8,m,LONG
Exp1_SingleTask_TiTo_Subj17-24,1,22,sx,BlockProc3,300,z,587,100,2,z,LONG
Exp1_SingleTask_TiTo_Subj17-24,1,22,sx,BlockProc3,150,m,1067,0,7,m,SHORT
Exp1_SingleTask_TiTo_Subj17-24,1,22,sx,BlockProc3,100,m,804,0,8,m,SHORT
Exp1_SingleTask_TiTo_Subj17-24,1,22,sx,BlockProc3,100,z,639,0,4,z,SHORT
Exp1_SingleTask_TiTo_Subj17-24,1,22,sx,BlockProc3,100,m,661,0,6,m,SHORT
Exp1_SingleTask_TiTo_Subj17-24,1,22,sx,BlockProc3,150,m,650,0,6,m,SHORT
Exp1_SingleTask_TiTo_Subj17-24,1,22,sx,BlockProc3,350,m,610,0,6,m,LONG
Exp1_SingleTask_TiTo_Subj17-24,1,22,sx,BlockProc3,150,z,1097,0,4,z,SHORT
Exp1_SingleTask_TiTo_Subj17-24,1,22,sx,BlockProc3,150,z,635,0,3,z,SHORT
Exp1_SingleTask_TiTo_Subj17-24,1,22,sx,BlockProc3,300,m,571,0,8,m,LONG
Exp1_SingleTask_TiTo_Subj17-24,1,22,sx,BlockProc3,350,m,656,100,6,m,LONG
Exp1_SingleTask_TiTo_Subj17-24,1,22,sx,BlockProc3,350,m,310,100,7,space,LONG
Exp1_SingleTask_TiTo_Subj17-24,1,22,sx,BlockProc3,150,m,624,100,8,m,SHORT
Exp1_SingleTask_TiTo_Subj17-24,1,22,sx,BlockProc3,100,z,612,0,2,z,SHORT
Exp1_SingleTask_TiTo_Subj17-24,1,22,sx,BlockProc3,350,m,687,100,8,m,LONG
Exp1_SingleTask_TiTo_Subj17-24,1,22,sx,BlockProc3,100,z,783,100,3,z,SHORT
Exp1_SingleTask_TiTo_Subj17-24,1,22,sx,BlockProc3,300,m,757,0,7,m,LONG
Exp1_SingleTask_TiTo_Subj17-24,1,22,sx,BlockProc3,300,z,654,0,3,z,LONG
Exp1_SingleTask_TiTo_Subj17-24,1,22,sx,BlockProc3,150,z,744,100,4,z,SHORT
Exp1_SingleTask_TiTo_Subj17-24,1,22,sx,BlockProc3,300,m,646,0,6,m,LONG
Exp1_SingleTask_TiTo_Subj17-24,1,22,sx,BlockProc3,100,z,668,0,3,z,SHORT
Exp1_SingleTask_TiTo_Subj17-24,1,22,sx,BlockProc3,350,z,549,100,2,z,LONG
Exp1_SingleTask_TiTo_Subj17-24,1,22,sx,BlockProc3,350,z,505,100,4,z,LONG
Exp1_SingleTask_TiTo_Subj17-24,1,22,sx,BlockProc3,100,m,553,100,8,m,SHORT
Exp1_SingleTask_TiTo_Subj17-24,1,22,sx,BlockProc3,350,z,652,100,3,z,LONG
Exp1_SingleTask_TiTo_Subj17-24,1,22,sx,BlockProc3,100,m,873,100,6,m,SHORT
Exp1_SingleTask_TiTo_Subj17-24,1,22,sx,BlockProc3,300,z,1105,0,4,z,LONG
Exp1_SingleTask_TiTo_Subj17-24,1,22,sx,BlockProc3,300,m,713,100,8,m,LONG
Exp1_SingleTask_TiTo_Subj17-24,1,22,sx,BlockProc3,100,m,837,0,7,m,SHORT
Exp1_SingleTask_TiTo_Subj17-24,1,22,sx,BlockProc3,350,z,621,0,3,z,LONG
Exp1_SingleTask_TiTo_Subj17-24,1,22,sx,BlockProc3,100,m,756,100,7,m,SHORT
Exp1_SingleTask_TiTo_Subj17-24,1,22,sx,BlockProc3,150,z,662,0,2,z,SHORT
Exp1_SingleTask_TiTo_Subj17-24,1,22,sx,BlockProc3,100,z,780,100,2,z,SHORT
Exp1_SingleTask_TiTo_Subj17-24,1,22,sx,BlockProc3,150,m,413,100,7,m,SHORT
Exp1_SingleTask_TiTo_Subj17-24,1,22,sx,BlockProc3,150,z,914,100,2,z,SHORT
Exp1_SingleTask_TiTo_Subj17-24,1,22,sx,BlockProc3,150,m,542,0,8,m,SHORT
Exp1_SingleTask_TiTo_Subj17-24,1,22,sx,BlockProc4,100,z,631,100,2,z,SHORT
Exp1_SingleTask_TiTo_Subj17-24,1,22,sx,BlockProc4,100,z,159,0,2,z,SHORT
Exp1_SingleTask_TiTo_Subj17-24,1,22,sx,BlockProc4,300,m,566,0,6,m,LONG
Exp1_SingleTask_TiTo_Subj17-24,1,22,sx,BlockProc4,150,m,724,100,7,m,SHORT
Exp1_SingleTask_TiTo_Subj17-24,1,22,sx,BlockProc4,150,m,591,0,7,m,SHORT
Exp1_SingleTask_TiTo_Subj17-24,1,22,sx,BlockProc4,150,m,524,0,8,m,SHORT
Exp1_SingleTask_TiTo_Subj17-24,1,22,sx,BlockProc4,350,m,540,0,6,m,LONG
Exp1_SingleTask_TiTo_Subj17-24,1,22,sx,BlockProc4,350,m,563,100,7,m,LONG
Exp1_SingleTask_TiTo_Subj17-24,1,22,sx,BlockProc4,300,z,548,100,2,z,LONG
Exp1_SingleTask_TiTo_Subj17-24,1,22,sx,BlockProc4,350,z,507,0,2,z,LONG
Exp1_SingleTask_TiTo_Subj17-24,1,22,sx,BlockProc4,150,z,708,100,4,z,SHORT
Exp1_SingleTask_TiTo_Subj17-24,1,22,sx,BlockProc4,100,z,756,0,3,z,SHORT
Exp1_SingleTask_TiTo_Subj17-24,1,22,sx,BlockProc4,350,z,686,100,3,z,LONG
Exp1_SingleTask_TiTo_Subj17-24,1,22,sx,BlockProc4,100,m,672,0,6,m,SHORT
Exp1_SingleTask_TiTo_Subj17-24,1,22,sx,BlockProc4,300,z,943,0,4,z,LONG
Exp1_SingleTask_TiTo_Subj17-24,1,22,sx,BlockProc4,150,z,653,0,3,z,SHORT
Exp1_SingleTask_TiTo_Subj17-24,1,22,sx,BlockProc4,350,m,655,100,6,m,LONG
Exp1_SingleTask_TiTo_Subj17-24,1,22,sx,BlockProc4,150,m,652,0,6,m,SHORT
Exp1_SingleTask_TiTo_Subj17-24,1,22,sx,BlockProc4,350,m,560,0,7,m,LONG
Exp1_SingleTask_TiTo_Subj17-24,1,22,sx,BlockProc4,100,m,674,0,8,m,SHORT
Exp1_SingleTask_TiTo_Subj17-24,1,22,sx,BlockProc4,350,m,302,0,8,m,LONG
Exp1_SingleTask_TiTo_Subj17-24,1,22,sx,BlockProc4,300,m,571,0,7,m,LONG
Exp1_SingleTask_TiTo_Subj17-24,1,22,sx,BlockProc4,300,z,571,0,3,z,LONG
Exp1_SingleTask_TiTo_Subj17-24,1,22,sx,BlockProc4,300,z,675,100,4,z,LONG
Exp1_SingleTask_TiTo_Subj17-24,1,22,sx,BlockProc4,100,m,722,100,6,m,SHORT
Exp1_SingleTask_TiTo_Subj17-24,1,22,sx,BlockProc4,350,z,633,100,2,z,LONG
Exp1_SingleTask_TiTo_Subj17-24,1,22,sx,BlockProc4,100,m,621,0,7,m,SHORT
Exp1_SingleTask_TiTo_Subj17-24,1,22,sx,BlockProc4,350,m,571,100,8,m,LONG
Exp1_SingleTask_TiTo_Subj17-24,1,22,sx,BlockProc4,300,z,614,100,3,z,LONG
Exp1_SingleTask_TiTo_Subj17-24,1,22,sx,BlockProc4,150,m,739,100,8,m,SHORT
Exp1_SingleTask_TiTo_Subj17-24,1,22,sx,BlockProc4,350,z,596,100,4,z,LONG
Exp1_SingleTask_TiTo_Subj17-24,1,22,sx,BlockProc4,100,z,729,100,4,z,SHORT
Exp1_SingleTask_TiTo_Subj17-24,1,22,sx,BlockProc4,150,z,675,100,2,z,SHORT
Exp1_SingleTask_TiTo_Subj17-24,1,22,sx,BlockProc4,150,z,649,0,4,z,SHORT
Exp1_SingleTask_TiTo_Subj17-24,1,22,sx,BlockProc4,350,z,548,0,3,z,LONG
Exp1_SingleTask_TiTo_Subj17-24,1,22,sx,BlockProc4,100,z,683,100,3,z,SHORT
Exp1_SingleTask_TiTo_Subj17-24,1,22,sx,BlockProc4,300,z,585,0,2,z,LONG
Exp1_SingleTask_TiTo_Subj17-24,1,22,sx,BlockProc4,100,z,657,0,4,z,SHORT
Exp1_SingleTask_TiTo_Subj17-24,1,22,sx,BlockProc4,100,m,314,100,8,m,SHORT
Exp1_SingleTask_TiTo_Subj17-24,1,22,sx,BlockProc4,100,m,809,100,7,m,SHORT
Exp1_SingleTask_TiTo_Subj17-24,1,22,sx,BlockProc4,300,m,611,100,7,m,LONG
Exp1_SingleTask_TiTo_Subj17-24,1,22,sx,BlockProc4,300,m,674,100,6,m,LONG
Exp1_SingleTask_TiTo_Subj17-24,1,22,sx,BlockProc4,300,m,589,0,8,m,LONG
Exp1_SingleTask_TiTo_Subj17-24,1,22,sx,BlockProc4,150,z,669,100,3,z,SHORT
Exp1_SingleTask_TiTo_Subj17-24,1,22,sx,BlockProc4,350,z,566,0,4,z,LONG
Exp1_SingleTask_TiTo_Subj17-24,1,22,sx,BlockProc4,150,m,741,100,6,m,SHORT
Exp1_SingleTask_TiTo_Subj17-24,1,22,sx,BlockProc4,150,z,599,0,2,z,SHORT
Exp1_SingleTask_TiTo_Subj17-24,1,22,sx,BlockProc4,300,m,387,100,8,m,LONG
Exp1_SingleTask_TiTo_Subj17-24,1,22,sx,BlockProc4,300,z,578,0,2,z,LONG
Exp1_SingleTask_TiTo_Subj17-24,1,22,sx,BlockProc4,150,z,476,0,2,z,SHORT
Exp1_SingleTask_TiTo_Subj17-24,1,22,sx,BlockProc4,100,z,741,100,2,z,SHORT
Exp1_SingleTask_TiTo_Subj17-24,1,22,sx,BlockProc4,350,z,979,0,4,z,LONG
Exp1_SingleTask_TiTo_Subj17-24,1,22,sx,BlockProc4,100,z,663,0,4,z,SHORT
Exp1_SingleTask_TiTo_Subj17-24,1,22,sx,BlockProc4,100,m,694,100,7,m,SHORT
Exp1_SingleTask_TiTo_Subj17-24,1,22,sx,BlockProc4,300,m,608,100,7,m,LONG
Exp1_SingleTask_TiTo_Subj17-24,1,22,sx,BlockProc4,350,m,552,0,6,m,LONG
Exp1_SingleTask_TiTo_Subj17-24,1,22,sx,BlockProc4,150,m,652,0,8,m,SHORT
Exp1_SingleTask_TiTo_Subj17-24,1,22,sx,BlockProc4,100,z,1008,100,4,z,SHORT
Exp1_SingleTask_TiTo_Subj17-24,1,22,sx,BlockProc4,350,m,613,0,7,m,LONG
Exp1_SingleTask_TiTo_Subj17-24,1,22,sx,BlockProc4,100,z,720,100,3,z,SHORT
Exp1_SingleTask_TiTo_Subj17-24,1,22,sx,BlockProc4,150,z,623,0,3,z,SHORT
Exp1_SingleTask_TiTo_Subj17-24,1,22,sx,BlockProc4,300,m,570,0,6,m,LONG
Exp1_SingleTask_TiTo_Subj17-24,1,22,sx,BlockProc4,300,z,674,0,4,z,LONG
Exp1_SingleTask_TiTo_Subj17-24,1,22,sx,BlockProc4,150,z,673,100,3,z,SHORT
Exp1_SingleTask_TiTo_Subj17-24,1,22,sx,BlockProc4,350,m,503,0,8,m,LONG
Exp1_SingleTask_TiTo_Subj17-24,1,22,sx,BlockProc4,350,z,812,100,3,z,LONG
Exp1_SingleTask_TiTo_Subj17-24,1,22,sx,BlockProc4,150,m,249,0,7,m,SHORT
Exp1_SingleTask_TiTo_Subj17-24,1,22,sx,BlockProc4,150,z,1002,100,2,z,SHORT
Exp1_SingleTask_TiTo_Subj17-24,1,22,sx,BlockProc4,300,m,668,100,6,m,LONG
Exp1_SingleTask_TiTo_Subj17-24,1,22,sx,BlockProc4,150,m,710,0,6,m,SHORT
Exp1_SingleTask_TiTo_Subj17-24,1,22,sx,BlockProc4,350,z,655,100,2,z,LONG
Exp1_SingleTask_TiTo_Subj17-24,1,22,sx,BlockProc4,150,m,1016,100,8,m,SHORT
Exp1_SingleTask_TiTo_Subj17-24,1,22,sx,BlockProc4,300,z,704,100,2,z,LONG
Exp1_SingleTask_TiTo_Subj17-24,1,22,sx,BlockProc4,150,z,599,0,4,z,SHORT
Exp1_SingleTask_TiTo_Subj17-24,1,22,sx,BlockProc4,300,m,869,0,7,m,LONG
Exp1_SingleTask_TiTo_Subj17-24,1,22,sx,BlockProc4,300,z,838,100,4,z,LONG
Exp1_SingleTask_TiTo_Subj17-24,1,22,sx,BlockProc4,100,z,663,0,3,z,SHORT
Exp1_SingleTask_TiTo_Subj17-24,1,22,sx,BlockProc4,300,m,636,100,8,m,LONG
Exp1_SingleTask_TiTo_Subj17-24,1,22,sx,BlockProc4,350,z,628,100,4,z,LONG
Exp1_SingleTask_TiTo_Subj17-24,1,22,sx,BlockProc4,100,m,680,0,7,m,SHORT
Exp1_SingleTask_TiTo_Subj17-24,1,22,sx,BlockProc4,100,m,669,0,8,m,SHORT
Exp1_SingleTask_TiTo_Subj17-24,1,22,sx,BlockProc4,350,z,554,0,2,z,LONG
Exp1_SingleTask_TiTo_Subj17-24,1,22,sx,BlockProc4,150,m,694,100,6,m,SHORT
Exp1_SingleTask_TiTo_Subj17-24,1,22,sx,BlockProc4,100,m,646,100,8,m,SHORT
Exp1_SingleTask_TiTo_Subj17-24,1,22,sx,BlockProc4,350,m,575,100,8,m,LONG
Exp1_SingleTask_TiTo_Subj17-24,1,22,sx,BlockProc4,300,z,599,100,3,z,LONG
Exp1_SingleTask_TiTo_Subj17-24,1,22,sx,BlockProc4,150,m,696,100,7,m,SHORT
Exp1_SingleTask_TiTo_Subj17-24,1,22,sx,BlockProc4,350,m,562,100,6,m,LONG
Exp1_SingleTask_TiTo_Subj17-24,1,22,sx,BlockProc4,300,m,574,0,8,m,LONG
Exp1_SingleTask_TiTo_Subj17-24,1,22,sx,BlockProc4,300,z,507,0,3,z,LONG
Exp1_SingleTask_TiTo_Subj17-24,1,22,sx,BlockProc4,350,z,606,0,3,z,LONG
Exp1_SingleTask_TiTo_Subj17-24,1,22,sx,BlockProc4,100,m,717,0,6,m,SHORT
Exp1_SingleTask_TiTo_Subj17-24,1,22,sx,BlockProc4,100,z,637,0,2,z,SHORT
Exp1_SingleTask_TiTo_Subj17-24,1,22,sx,BlockProc4,350,m,775,100,7,m,LONG
Exp1_SingleTask_TiTo_Subj17-24,1,22,sx,BlockProc4,150,z,514,100,4,z,SHORT
Exp1_SingleTask_TiTo_Subj17-24,1,22,sx,BlockProc4,100,m,758,100,6,m,SHORT
Exp1_SingleTask_TiTo_Subj17-24,1,22,sx,BlockProc4,150,m,673,100,6,m,SHORT
Exp1_SingleTask_TiTo_Subj17-24,1,22,sx,BlockProc4,100,m,661,100,6,m,SHORT
Exp1_SingleTask_TiTo_Subj17-24,1,22,sx,BlockProc4,350,z,536,0,2,z,LONG
Exp1_SingleTask_TiTo_Subj17-24,1,22,sx,BlockProc4,350,z,584,0,3,z,LONG
Exp1_SingleTask_TiTo_Subj17-24,1,22,sx,BlockProc4,300,m,583,0,7,m,LONG
Exp1_SingleTask_TiTo_Subj17-24,1,22,sx,BlockProc4,350,z,618,0,4,z,LONG
Exp1_SingleTask_TiTo_Subj17-24,1,22,sx,BlockProc4,100,m,700,0,6,m,SHORT
Exp1_SingleTask_TiTo_Subj17-24,1,22,sx,BlockProc4,150,z,542,0,2,z,SHORT
Exp1_SingleTask_TiTo_Subj17-24,1,22,sx,BlockProc4,150,z,689,0,3,z,SHORT
Exp1_SingleTask_TiTo_Subj17-24,1,22,sx,BlockProc4,100,z,625,0,2,z,SHORT
Exp1_SingleTask_TiTo_Subj17-24,1,22,sx,BlockProc4,100,z,454,0,3,z,SHORT
Exp1_SingleTask_TiTo_Subj17-24,1,22,sx,BlockProc4,350,m,776,100,6,z,LONG
Exp1_SingleTask_TiTo_Subj17-24,1,22,sx,BlockProc4,350,m,598,100,8,m,LONG
Exp1_SingleTask_TiTo_Subj17-24,1,22,sx,BlockProc4,300,m,627,100,7,m,LONG
Exp1_SingleTask_TiTo_Subj17-24,1,22,sx,BlockProc4,300,m,633,0,6,m,LONG
Exp1_SingleTask_TiTo_Subj17-24,1,22,sx,BlockProc4,100,m,763,100,7,m,SHORT
Exp1_SingleTask_TiTo_Subj17-24,1,22,sx,BlockProc4,150,z,677,100,3,z,SHORT
Exp1_SingleTask_TiTo_Subj17-24,1,22,sx,BlockProc4,150,m,732,100,7,m,SHORT
Exp1_SingleTask_TiTo_Subj17-24,1,22,sx,BlockProc4,150,z,659,0,4,z,SHORT
Exp1_SingleTask_TiTo_Subj17-24,1,22,sx,BlockProc4,350,m,590,0,6,m,LONG
Exp1_SingleTask_TiTo_Subj17-24,1,22,sx,BlockProc4,100,z,892,100,4,z,SHORT
Exp1_SingleTask_TiTo_Subj17-24,1,22,sx,BlockProc4,300,z,759,100,2,z,LONG
Exp1_SingleTask_TiTo_Subj17-24,1,22,sx,BlockProc4,300,m,627,100,6,m,LONG
Exp1_SingleTask_TiTo_Subj17-24,1,22,sx,BlockProc4,100,m,661,0,8,m,SHORT
Exp1_SingleTask_TiTo_Subj17-24,1,22,sx,BlockProc4,300,m,548,100,8,m,LONG
Exp1_SingleTask_TiTo_Subj17-24,1,22,sx,BlockProc4,100,z,608,100,2,z,SHORT
Exp1_SingleTask_TiTo_Subj17-24,1,22,sx,BlockProc4,350,m,994,0,7,m,LONG
Exp1_SingleTask_TiTo_Subj17-24,1,22,sx,BlockProc4,350,z,596,100,2,z,LONG
Exp1_SingleTask_TiTo_Subj17-24,1,22,sx,BlockProc4,300,z,1055,0,4,z,LONG
Exp1_SingleTask_TiTo_Subj17-24,1,22,sx,BlockProc4,100,z,727,100,3,z,SHORT
Exp1_SingleTask_TiTo_Subj17-24,1,22,sx,BlockProc4,350,z,338,100,4,z,LONG
Exp1_SingleTask_TiTo_Subj17-24,1,22,sx,BlockProc4,100,m,633,100,8,m,SHORT
Exp1_SingleTask_TiTo_Subj17-24,1,22,sx,BlockProc4,150,m,589,100,8,m,SHORT
Exp1_SingleTask_TiTo_Subj17-24,1,22,sx,BlockProc4,300,z,547,0,3,z,LONG
Exp1_SingleTask_TiTo_Subj17-24,1,22,sx,BlockProc4,100,m,638,0,7,m,SHORT
Exp1_SingleTask_TiTo_Subj17-24,1,22,sx,BlockProc4,350,m,549,100,7,m,LONG
Exp1_SingleTask_TiTo_Subj17-24,1,22,sx,BlockProc4,150,m,664,0,7,m,SHORT
Exp1_SingleTask_TiTo_Subj17-24,1,22,sx,BlockProc4,100,z,649,0,4,z,SHORT
Exp1_SingleTask_TiTo_Subj17-24,1,22,sx,BlockProc4,150,m,628,0,8,m,SHORT
Exp1_SingleTask_TiTo_Subj17-24,1,22,sx,BlockProc4,300,z,566,0,2,z,LONG
Exp1_SingleTask_TiTo_Subj17-24,1,22,sx,BlockProc4,300,z,652,100,3,z,LONG
Exp1_SingleTask_TiTo_Subj17-24,1,22,sx,BlockProc4,300,m,588,0,8,m,LONG
Exp1_SingleTask_TiTo_Subj17-24,1,22,sx,BlockProc4,300,z,721,100,4,z,LONG
Exp1_SingleTask_TiTo_Subj17-24,1,22,sx,BlockProc4,350,z,632,100,3,z,LONG
Exp1_SingleTask_TiTo_Subj17-24,1,22,sx,BlockProc4,150,z,589,100,4,z,SHORT
Exp1_SingleTask_TiTo_Subj17-24,1,22,sx,BlockProc4,150,m,750,0,6,m,SHORT
Exp1_SingleTask_TiTo_Subj17-24,1,22,sx,BlockProc4,350,m,558,0,8,m,LONG
Exp1_SingleTask_TiTo_Subj17-24,1,22,sx,BlockProc4,150,z,610,100,2,z,SHORT
Exp1_SingleTask_TiTo_Subj17-24,2,23,dx,BlockProc1,100,z,704,100,3,z,SHORT
Exp1_SingleTask_TiTo_Subj17-24,2,23,dx,BlockProc1,350,z,551,0,3,z,LONG
Exp1_SingleTask_TiTo_Subj17-24,2,23,dx,BlockProc1,150,m,566,100,6,m,SHORT
Exp1_SingleTask_TiTo_Subj17-24,2,23,dx,BlockProc1,300,z,610,100,4,z,LONG
Exp1_SingleTask_TiTo_Subj17-24,2,23,dx,BlockProc1,100,z,640,100,2,z,SHORT
Exp1_SingleTask_TiTo_Subj17-24,2,23,dx,BlockProc1,350,m,435,0,6,m,LONG
Exp1_SingleTask_TiTo_Subj17-24,2,23,dx,BlockProc1,350,z,514,0,2,z,LONG
Exp1_SingleTask_TiTo_Subj17-24,2,23,dx,BlockProc1,150,z,552,0,3,z,SHORT
Exp1_SingleTask_TiTo_Subj17-24,2,23,dx,BlockProc1,100,z,623,100,4,z,SHORT
Exp1_SingleTask_TiTo_Subj17-24,2,23,dx,BlockProc1,100,m,530,0,7,m,SHORT
Exp1_SingleTask_TiTo_Subj17-24,2,23,dx,BlockProc1,100,z,551,0,3,z,SHORT
Exp1_SingleTask_TiTo_Subj17-24,2,23,dx,BlockProc1,350,z,490,0,4,z,LONG
Exp1_SingleTask_TiTo_Subj17-24,2,23,dx,BlockProc1,300,m,448,0,6,m,LONG
Exp1_SingleTask_TiTo_Subj17-24,2,23,dx,BlockProc1,100,z,583,0,4,z,SHORT
Exp1_SingleTask_TiTo_Subj17-24,2,23,dx,BlockProc1,150,m,664,100,7,m,SHORT
Exp1_SingleTask_TiTo_Subj17-24,2,23,dx,BlockProc1,100,m,624,100,8,m,SHORT
Exp1_SingleTask_TiTo_Subj17-24,2,23,dx,BlockProc1,300,m,585,100,7,m,LONG
Exp1_SingleTask_TiTo_Subj17-24,2,23,dx,BlockProc1,350,m,510,0,8,m,LONG
Exp1_SingleTask_TiTo_Subj17-24,2,23,dx,BlockProc1,100,m,617,100,7,m,SHORT
Exp1_SingleTask_TiTo_Subj17-24,2,23,dx,BlockProc1,300,z,498,0,3,z,LONG
Exp1_SingleTask_TiTo_Subj17-24,2,23,dx,BlockProc1,100,z,603,0,2,z,SHORT
Exp1_SingleTask_TiTo_Subj17-24,2,23,dx,BlockProc1,150,z,764,100,3,z,SHORT
Exp1_SingleTask_TiTo_Subj17-24,2,23,dx,BlockProc1,100,m,606,100,6,m,SHORT
Exp1_SingleTask_TiTo_Subj17-24,2,23,dx,BlockProc1,350,m,792,0,7,m,LONG
Exp1_SingleTask_TiTo_Subj17-24,2,23,dx,BlockProc1,300,z,456,0,4,z,LONG
Exp1_SingleTask_TiTo_Subj17-24,2,23,dx,BlockProc1,150,z,617,100,4,z,SHORT
Exp1_SingleTask_TiTo_Subj17-24,2,23,dx,BlockProc1,300,m,363,0,8,m,LONG
Exp1_SingleTask_TiTo_Subj17-24,2,23,dx,BlockProc1,150,z,428,0,2,z,SHORT
Exp1_SingleTask_TiTo_Subj17-24,2,23,dx,BlockProc1,300,m,408,0,7,m,LONG
Exp1_SingleTask_TiTo_Subj17-24,2,23,dx,BlockProc1,150,m,644,0,7,m,SHORT
Exp1_SingleTask_TiTo_Subj17-24,2,23,dx,BlockProc1,350,z,540,100,2,z,LONG
Exp1_SingleTask_TiTo_Subj17-24,2,23,dx,BlockProc1,150,z,678,0,4,z,SHORT
Exp1_SingleTask_TiTo_Subj17-24,2,23,dx,BlockProc1,100,m,527,0,8,m,SHORT
Exp1_SingleTask_TiTo_Subj17-24,2,23,dx,BlockProc1,300,z,543,100,2,z,LONG
Exp1_SingleTask_TiTo_Subj17-24,2,23,dx,BlockProc1,150,m,446,0,8,m,SHORT
Exp1_SingleTask_TiTo_Subj17-24,2,23,dx,BlockProc1,100,m,595,0,6,m,SHORT
Exp1_SingleTask_TiTo_Subj17-24,2,23,dx,BlockProc1,300,m,413,100,6,m,LONG
Exp1_SingleTask_TiTo_Subj17-24,2,23,dx,BlockProc1,300,z,455,0,2,z,LONG
Exp1_SingleTask_TiTo_Subj17-24,2,23,dx,BlockProc1,350,m,479,100,6,m,LONG
Exp1_SingleTask_TiTo_Subj17-24,2,23,dx,BlockProc1,350,m,700,100,7,m,LONG
Exp1_SingleTask_TiTo_Subj17-24,2,23,dx,BlockProc1,150,z,615,100,2,z,SHORT
Exp1_SingleTask_TiTo_Subj17-24,2,23,dx,BlockProc1,150,m,654,0,6,m,SHORT
Exp1_SingleTask_TiTo_Subj17-24,2,23,dx,BlockProc1,150,m,571,100,8,m,SHORT
Exp1_SingleTask_TiTo_Subj17-24,2,23,dx,BlockProc1,350,m,477,100,8,m,LONG
Exp1_SingleTask_TiTo_Subj17-24,2,23,dx,BlockProc1,350,z,563,100,4,z,LONG
Exp1_SingleTask_TiTo_Subj17-24,2,23,dx,BlockProc1,350,z,525,100,3,z,LONG
Exp1_SingleTask_TiTo_Subj17-24,2,23,dx,BlockProc1,300,m,405,100,8,m,LONG
Exp1_SingleTask_TiTo_Subj17-24,2,23,dx,BlockProc1,300,z,535,100,3,z,LONG
Exp1_SingleTask_TiTo_Subj17-24,2,23,dx,BlockProc1,350,m,708,0,6,m,LONG
Exp1_SingleTask_TiTo_Subj17-24,2,23,dx,BlockProc1,300,m,529,100,6,m,LONG
Exp1_SingleTask_TiTo_Subj17-24,2,23,dx,BlockProc1,150,m,491,0,6,m,SHORT
Exp1_SingleTask_TiTo_Subj17-24,2,23,dx,BlockProc1,150,m,505,0,8,m,SHORT
Exp1_SingleTask_TiTo_Subj17-24,2,23,dx,BlockProc1,100,m,709,100,6,m,SHORT
Exp1_SingleTask_TiTo_Subj17-24,2,23,dx,BlockProc1,300,z,415,100,4,z,LONG
Exp1_SingleTask_TiTo_Subj17-24,2,23,dx,BlockProc1,100,m,517,100,7,m,SHORT
Exp1_SingleTask_TiTo_Subj17-24,2,23,dx,BlockProc1,100,z,451,0,4,z,SHORT
Exp1_SingleTask_TiTo_Subj17-24,2,23,dx,BlockProc1,350,m,443,0,7,m,LONG
Exp1_SingleTask_TiTo_Subj17-24,2,23,dx,BlockProc1,350,z,435,100,2,z,LONG
Exp1_SingleTask_TiTo_Subj17-24,2,23,dx,BlockProc1,100,z,644,100,3,z,SHORT
Exp1_SingleTask_TiTo_Subj17-24,2,23,dx,BlockProc1,100,z,728,0,3,z,SHORT
Exp1_SingleTask_TiTo_Subj17-24,2,23,dx,BlockProc1,100,m,446,0,7,m,SHORT
Exp1_SingleTask_TiTo_Subj17-24,2,23,dx,BlockProc1,350,z,480,100,4,z,LONG
Exp1_SingleTask_TiTo_Subj17-24,2,23,dx,BlockProc1,150,z,575,0,4,z,SHORT
Exp1_SingleTask_TiTo_Subj17-24,2,23,dx,BlockProc1,100,m,562,0,6,m,SHORT
Exp1_SingleTask_TiTo_Subj17-24,2,23,dx,BlockProc1,100,m,770,100,8,m,SHORT
Exp1_SingleTask_TiTo_Subj17-24,2,23,dx,BlockProc1,150,z,552,100,3,z,SHORT
Exp1_SingleTask_TiTo_Subj17-24,2,23,dx,BlockProc1,350,m,414,0,8,m,LONG
Exp1_SingleTask_TiTo_Subj17-24,2,23,dx,BlockProc1,350,z,441,0,4,z,LONG
Exp1_SingleTask_TiTo_Subj17-24,2,23,dx,BlockProc1,300,m,431,100,7,m,LONG
Exp1_SingleTask_TiTo_Subj17-24,2,23,dx,BlockProc1,150,m,549,100,8,m,SHORT
Exp1_SingleTask_TiTo_Subj17-24,2,23,dx,BlockProc1,300,z,340,100,2,z,LONG
Exp1_SingleTask_TiTo_Subj17-24,2,23,dx,BlockProc1,100,z,488,0,2,z,SHORT
Exp1_SingleTask_TiTo_Subj17-24,2,23,dx,BlockProc1,300,z,486,100,3,z,LONG
Exp1_SingleTask_TiTo_Subj17-24,2,23,dx,BlockProc1,150,m,469,100,6,m,SHORT
Exp1_SingleTask_TiTo_Subj17-24,2,23,dx,BlockProc1,300,z,507,0,4,z,LONG
Exp1_SingleTask_TiTo_Subj17-24,2,23,dx,BlockProc1,100,z,575,100,4,z,SHORT
Exp1_SingleTask_TiTo_Subj17-24,2,23,dx,BlockProc1,150,z,504,0,2,z,SHORT
Exp1_SingleTask_TiTo_Subj17-24,2,23,dx,BlockProc1,150,z,518,0,3,z,SHORT
Exp1_SingleTask_TiTo_Subj17-24,2,23,dx,BlockProc1,300,m,367,0,7,m,LONG
Exp1_SingleTask_TiTo_Subj17-24,2,23,dx,BlockProc1,150,m,428,0,7,m,SHORT
Exp1_SingleTask_TiTo_Subj17-24,2,23,dx,BlockProc1,350,z,505,100,3,z,LONG
Exp1_SingleTask_TiTo_Subj17-24,2,23,dx,BlockProc1,300,m,385,0,8,m,LONG
Exp1_SingleTask_TiTo_Subj17-24,2,23,dx,BlockProc1,150,z,510,100,2,z,SHORT
Exp1_SingleTask_TiTo_Subj17-24,2,23,dx,BlockProc1,150,z,635,100,4,z,SHORT
Exp1_SingleTask_TiTo_Subj17-24,2,23,dx,BlockProc1,300,m,365,0,6,m,LONG
Exp1_SingleTask_TiTo_Subj17-24,2,23,dx,BlockProc1,350,z,517,0,2,z,LONG
Exp1_SingleTask_TiTo_Subj17-24,2,23,dx,BlockProc1,100,z,625,100,2,z,SHORT
Exp1_SingleTask_TiTo_Subj17-24,2,23,dx,BlockProc1,300,m,451,100,8,m,LONG
Exp1_SingleTask_TiTo_Subj17-24,2,23,dx,BlockProc1,300,z,458,0,3,z,LONG
Exp1_SingleTask_TiTo_Subj17-24,2,23,dx,BlockProc1,350,z,469,0,3,z,LONG
Exp1_SingleTask_TiTo_Subj17-24,2,23,dx,BlockProc1,300,z,468,0,2,z,LONG
Exp1_SingleTask_TiTo_Subj17-24,2,23,dx,BlockProc1,350,m,552,100,8,m,LONG
Exp1_SingleTask_TiTo_Subj17-24,2,23,dx,BlockProc1,100,m,596,0,8,m,SHORT
Exp1_SingleTask_TiTo_Subj17-24,2,23,dx,BlockProc1,150,m,548,100,7,m,SHORT
Exp1_SingleTask_TiTo_Subj17-24,2,23,dx,BlockProc1,350,m,475,100,6,m,LONG
Exp1_SingleTask_TiTo_Subj17-24,2,23,dx,BlockProc1,350,m,477,100,7,m,LONG
Exp1_SingleTask_TiTo_Subj17-24,2,23,dx,BlockProc1,150,m,559,0,6,m,SHORT
Exp1_SingleTask_TiTo_Subj17-24,2,23,dx,BlockProc1,350,m,496,100,7,m,LONG
Exp1_SingleTask_TiTo_Subj17-24,2,23,dx,BlockProc1,150,z,574,0,2,z,SHORT
Exp1_SingleTask_TiTo_Subj17-24,2,23,dx,BlockProc1,300,m,472,100,6,m,LONG
Exp1_SingleTask_TiTo_Subj17-24,2,23,dx,BlockProc1,150,z,477,0,3,z,SHORT
Exp1_SingleTask_TiTo_Subj17-24,2,23,dx,BlockProc1,350,z,489,0,4,z,LONG
Exp1_SingleTask_TiTo_Subj17-24,2,23,dx,BlockProc1,300,z,538,0,4,z,LONG
Exp1_SingleTask_TiTo_Subj17-24,2,23,dx,BlockProc1,350,m,487,0,6,m,LONG
Exp1_SingleTask_TiTo_Subj17-24,2,23,dx,BlockProc1,350,z,501,0,3,z,LONG
Exp1_SingleTask_TiTo_Subj17-24,2,23,dx,BlockProc1,300,m,466,100,7,m,LONG
Exp1_SingleTask_TiTo_Subj17-24,2,23,dx,BlockProc1,350,z,515,100,2,z,LONG
Exp1_SingleTask_TiTo_Subj17-24,2,23,dx,BlockProc1,100,m,489,0,6,m,SHORT
Exp1_SingleTask_TiTo_Subj17-24,2,23,dx,BlockProc1,300,z,503,0,3,z,LONG
Exp1_SingleTask_TiTo_Subj17-24,2,23,dx,BlockProc1,350,m,425,100,8,m,LONG
Exp1_SingleTask_TiTo_Subj17-24,2,23,dx,BlockProc1,150,m,693,0,7,m,SHORT
Exp1_SingleTask_TiTo_Subj17-24,2,23,dx,BlockProc1,150,z,990,100,4,z,SHORT
Exp1_SingleTask_TiTo_Subj17-24,2,23,dx,BlockProc1,100,z,613,100,2,z,SHORT
Exp1_SingleTask_TiTo_Subj17-24,2,23,dx,BlockProc1,300,z,558,100,4,z,LONG
Exp1_SingleTask_TiTo_Subj17-24,2,23,dx,BlockProc1,100,m,553,100,7,m,SHORT
Exp1_SingleTask_TiTo_Subj17-24,2,23,dx,BlockProc1,350,z,548,100,4,z,LONG
Exp1_SingleTask_TiTo_Subj17-24,2,23,dx,BlockProc1,150,m,573,100,6,m,SHORT
Exp1_SingleTask_TiTo_Subj17-24,2,23,dx,BlockProc1,150,z,566,0,4,z,SHORT
Exp1_SingleTask_TiTo_Subj17-24,2,23,dx,BlockProc1,300,z,471,100,2,z,LONG
Exp1_SingleTask_TiTo_Subj17-24,2,23,dx,BlockProc1,350,m,514,100,6,m,LONG
Exp1_SingleTask_TiTo_Subj17-24,2,23,dx,BlockProc1,300,m,488,0,6,m,LONG
Exp1_SingleTask_TiTo_Subj17-24,2,23,dx,BlockProc1,100,m,586,100,8,m,SHORT
Exp1_SingleTask_TiTo_Subj17-24,2,23,dx,BlockProc1,150,m,608,100,7,m,SHORT
Exp1_SingleTask_TiTo_Subj17-24,2,23,dx,BlockProc1,100,z,490,100,4,z,SHORT
Exp1_SingleTask_TiTo_Subj17-24,2,23,dx,BlockProc1,300,m,465,0,8,m,LONG
Exp1_SingleTask_TiTo_Subj17-24,2,23,dx,BlockProc1,150,z,520,100,3,z,SHORT
Exp1_SingleTask_TiTo_Subj17-24,2,23,dx,BlockProc1,150,m,465,100,8,m,SHORT
Exp1_SingleTask_TiTo_Subj17-24,2,23,dx,BlockProc1,350,z,497,0,2,z,LONG
Exp1_SingleTask_TiTo_Subj17-24,2,23,dx,BlockProc1,300,m,364,0,7,m,LONG
Exp1_SingleTask_TiTo_Subj17-24,2,23,dx,BlockProc1,100,m,549,100,6,m,SHORT
Exp1_SingleTask_TiTo_Subj17-24,2,23,dx,BlockProc1,350,z,541,100,3,z,LONG
Exp1_SingleTask_TiTo_Subj17-24,2,23,dx,BlockProc1,300,z,565,100,3,z,LONG
Exp1_SingleTask_TiTo_Subj17-24,2,23,dx,BlockProc1,100,z,710,0,2,z,SHORT
Exp1_SingleTask_TiTo_Subj17-24,2,23,dx,BlockProc1,300,m,521,100,8,m,LONG
Exp1_SingleTask_TiTo_Subj17-24,2,23,dx,BlockProc1,100,m,630,0,7,m,SHORT
Exp1_SingleTask_TiTo_Subj17-24,2,23,dx,BlockProc1,350,m,477,0,8,m,LONG
Exp1_SingleTask_TiTo_Subj17-24,2,23,dx,BlockProc1,150,z,615,100,2,z,SHORT
Exp1_SingleTask_TiTo_Subj17-24,2,23,dx,BlockProc1,100,z,611,100,3,z,SHORT
Exp1_SingleTask_TiTo_Subj17-24,2,23,dx,BlockProc1,100,z,514,0,3,z,SHORT
Exp1_SingleTask_TiTo_Subj17-24,2,23,dx,BlockProc1,100,z,503,0,4,z,SHORT
Exp1_SingleTask_TiTo_Subj17-24,2,23,dx,BlockProc1,100,m,399,0,8,m,SHORT
Exp1_SingleTask_TiTo_Subj17-24,2,23,dx,BlockProc1,300,z,447,0,2,z,LONG
Exp1_SingleTask_TiTo_Subj17-24,2,23,dx,BlockProc1,150,m,471,0,8,m,SHORT
Exp1_SingleTask_TiTo_Subj17-24,2,23,dx,BlockProc1,350,m,478,0,7,m,LONG
Exp1_SingleTask_TiTo_Subj17-24,2,23,dx,BlockProc2,100,z,635,100,4,z,SHORT
Exp1_SingleTask_TiTo_Subj17-24,2,23,dx,BlockProc2,350,m,421,100,6,m,LONG
Exp1_SingleTask_TiTo_Subj17-24,2,23,dx,BlockProc2,100,m,506,0,8,m,SHORT
Exp1_SingleTask_TiTo_Subj17-24,2,23,dx,BlockProc2,150,m,491,0,8,m,SHORT
Exp1_SingleTask_TiTo_Subj17-24,2,23,dx,BlockProc2,350,m,371,0,8,m,LONG
Exp1_SingleTask_TiTo_Subj17-24,2,23,dx,BlockProc2,100,z,615,100,3,z,SHORT
Exp1_SingleTask_TiTo_Subj17-24,2,23,dx,BlockProc2,300,m,430,100,6,m,LONG
Exp1_SingleTask_TiTo_Subj17-24,2,23,dx,BlockProc2,300,z,480,0,3,z,LONG
Exp1_SingleTask_TiTo_Subj17-24,2,23,dx,BlockProc2,350,z,472,0,2,z,LONG
Exp1_SingleTask_TiTo_Subj17-24,2,23,dx,BlockProc2,150,z,591,100,3,z,SHORT
Exp1_SingleTask_TiTo_Subj17-24,2,23,dx,BlockProc2,300,z,440,100,2,z,LONG
Exp1_SingleTask_TiTo_Subj17-24,2,23,dx,BlockProc2,300,m,359,0,6,m,LONG
Exp1_SingleTask_TiTo_Subj17-24,2,23,dx,BlockProc2,150,m,497,100,8,m,SHORT
Exp1_SingleTask_TiTo_Subj17-24,2,23,dx,BlockProc2,100,z,403,0,2,z,SHORT
Exp1_SingleTask_TiTo_Subj17-24,2,23,dx,BlockProc2,100,m,504,100,8,m,SHORT
Exp1_SingleTask_TiTo_Subj17-24,2,23,dx,BlockProc2,150,m,481,100,6,m,SHORT
Exp1_SingleTask_TiTo_Subj17-24,2,23,dx,BlockProc2,350,m,437,100,7,m,LONG
Exp1_SingleTask_TiTo_Subj17-24,2,23,dx,BlockProc2,350,z,449,100,4,z,LONG
Exp1_SingleTask_TiTo_Subj17-24,2,23,dx,BlockProc2,100,m,590,0,6,m,SHORT
Exp1_SingleTask_TiTo_Subj17-24,2,23,dx,BlockProc2,350,z,457,100,2,z,LONG
Exp1_SingleTask_TiTo_Subj17-24,2,23,dx,BlockProc2,300,z,368,0,4,z,LONG
Exp1_SingleTask_TiTo_Subj17-24,2,23,dx,BlockProc2,300,z,422,0,2,z,LONG
Exp1_SingleTask_TiTo_Subj17-24,2,23,dx,BlockProc2,300,m,486,100,7,m,LONG
Exp1_SingleTask_TiTo_Subj17-24,2,23,dx,BlockProc2,150,z,517,100,2,z,SHORT
Exp1_SingleTask_TiTo_Subj17-24,2,23,dx,BlockProc2,100,z,672,0,4,z,SHORT
Exp1_SingleTask_TiTo_Subj17-24,2,23,dx,BlockProc2,300,z,438,100,4,z,LONG
Exp1_SingleTask_TiTo_Subj17-24,2,23,dx,BlockProc2,150,z,503,0,2,z,SHORT
Exp1_SingleTask_TiTo_Subj17-24,2,23,dx,BlockProc2,300,m,365,0,8,m,LONG
Exp1_SingleTask_TiTo_Subj17-24,2,23,dx,BlockProc2,150,m,576,0,6,m,SHORT
Exp1_SingleTask_TiTo_Subj17-24,2,23,dx,BlockProc2,300,m,426,0,7,m,LONG
Exp1_SingleTask_TiTo_Subj17-24,2,23,dx,BlockProc2,150,m,473,0,7,m,SHORT
Exp1_SingleTask_TiTo_Subj17-24,2,23,dx,BlockProc2,150,z,521,100,4,z,SHORT
Exp1_SingleTask_TiTo_Subj17-24,2,23,dx,BlockProc2,100,m,625,100,7,m,SHORT
Exp1_SingleTask_TiTo_Subj17-24,2,23,dx,BlockProc2,100,m,692,100,6,m,SHORT
Exp1_SingleTask_TiTo_Subj17-24,2,23,dx,BlockProc2,350,z,346,0,3,z,LONG
Exp1_SingleTask_TiTo_Subj17-24,2,23,dx,BlockProc2,150,m,449,100,7,m,SHORT
Exp1_SingleTask_TiTo_Subj17-24,2,23,dx,BlockProc2,350,m,389,100,8,m,LONG
Exp1_SingleTask_TiTo_Subj17-24,2,23,dx,BlockProc2,150,z,454,0,3,z,SHORT
Exp1_SingleTask_TiTo_Subj17-24,2,23,dx,BlockProc2,150,z,477,0,4,z,SHORT
Exp1_SingleTask_TiTo_Subj17-24,2,23,dx,BlockProc2,350,m,463,0,7,m,LONG
Exp1_SingleTask_TiTo_Subj17-24,2,23,dx,BlockProc2,350,z,476,0,4,z,LONG
Exp1_SingleTask_TiTo_Subj17-24,2,23,dx,BlockProc2,300,m,413,100,8,m,LONG
Exp1_SingleTask_TiTo_Subj17-24,2,23,dx,BlockProc2,100,m,535,0,7,m,SHORT
Exp1_SingleTask_TiTo_Subj17-24,2,23,dx,BlockProc2,350,m,437,0,6,m,LONG
Exp1_SingleTask_TiTo_Subj17-24,2,23,dx,BlockProc2,350,z,509,100,3,z,LONG
Exp1_SingleTask_TiTo_Subj17-24,2,23,dx,BlockProc2,300,z,309,100,3,z,LONG
Exp1_SingleTask_TiTo_Subj17-24,2,23,dx,BlockProc2,100,z,485,0,3,z,SHORT
Exp1_SingleTask_TiTo_Subj17-24,2,23,dx,BlockProc2,100,z,548,100,2,z,SHORT
Exp1_SingleTask_TiTo_Subj17-24,2,23,dx,BlockProc2,300,z,544,100,3,z,LONG
Exp1_SingleTask_TiTo_Subj17-24,2,23,dx,BlockProc2,300,m,265,0,8,m,LONG
Exp1_SingleTask_TiTo_Subj17-24,2,23,dx,BlockProc2,300,z,478,0,3,z,LONG
Exp1_SingleTask_TiTo_Subj17-24,2,23,dx,BlockProc2,350,z,343,100,3,z,LONG
Exp1_SingleTask_TiTo_Subj17-24,2,23,dx,BlockProc2,100,z,474,0,3,z,SHORT
Exp1_SingleTask_TiTo_Subj17-24,2,23,dx,BlockProc2,100,z,655,100,4,z,SHORT
Exp1_SingleTask_TiTo_Subj17-24,2,23,dx,BlockProc2,300,z,445,100,4,z,LONG
Exp1_SingleTask_TiTo_Subj17-24,2,23,dx,BlockProc2,300,z,390,0,4,z,LONG
Exp1_SingleTask_TiTo_Subj17-24,2,23,dx,BlockProc2,100,z,481,0,4,z,SHORT
Exp1_SingleTask_TiTo_Subj17-24,2,23,dx,BlockProc2,350,m,454,0,7,m,LONG
Exp1_SingleTask_TiTo_Subj17-24,2,23,dx,BlockProc2,350,z,442,0,3,z,LONG
Exp1_SingleTask_TiTo_Subj17-24,2,23,dx,BlockProc2,150,m,603,100,7,m,SHORT
Exp1_SingleTask_TiTo_Subj17-24,2,23,dx,BlockProc2,350,m,412,0,6,m,LONG
Exp1_SingleTask_TiTo_Subj17-24,2,23,dx,BlockProc2,350,z,545,100,4,z,LONG
Exp1_SingleTask_TiTo_Subj17-24,2,23,dx,BlockProc2,100,z,551,0,2,z,SHORT
Exp1_SingleTask_TiTo_Subj17-24,2,23,dx,BlockProc2,100,z,547,100,2,z,SHORT
Exp1_SingleTask_TiTo_Subj17-24,2,23,dx,BlockProc2,300,m,378,0,7,m,LONG
Exp1_SingleTask_TiTo_Subj17-24,2,23,dx,BlockProc2,100,m,478,0,6,m,SHORT
Exp1_SingleTask_TiTo_Subj17-24,2,23,dx,BlockProc2,350,z,471,0,2,z,LONG
Exp1_SingleTask_TiTo_Subj17-24,2,23,dx,BlockProc2,150,m,524,100,8,m,SHORT
Exp1_SingleTask_TiTo_Subj17-24,2,23,dx,BlockProc2,150,z,490,0,3,z,SHORT
Exp1_SingleTask_TiTo_Subj17-24,2,23,dx,BlockProc2,350,z,471,100,2,z,LONG
Exp1_SingleTask_TiTo_Subj17-24,2,23,dx,BlockProc2,300,m,462,0,6,m,LONG
Exp1_SingleTask_TiTo_Subj17-24,2,23,dx,BlockProc2,150,m,603,0,7,m,SHORT
Exp1_SingleTask_TiTo_Subj17-24,2,23,dx,BlockProc2,100,m,596,100,6,m,SHORT
Exp1_SingleTask_TiTo_Subj17-24,2,23,dx,BlockProc2,150,z,519,0,2,z,SHORT
Exp1_SingleTask_TiTo_Subj17-24,2,23,dx,BlockProc2,300,m,420,100,8,m,LONG
Exp1_SingleTask_TiTo_Subj17-24,2,23,dx,BlockProc2,300,m,388,100,7,m,LONG
Exp1_SingleTask_TiTo_Subj17-24,2,23,dx,BlockProc2,150,z,553,100,4,z,SHORT
Exp1_SingleTask_TiTo_Subj17-24,2,23,dx,BlockProc2,150,z,396,0,4,z,SHORT
Exp1_SingleTask_TiTo_Subj17-24,2,23,dx,BlockProc2,150,m,442,0,6,m,SHORT
Exp1_SingleTask_TiTo_Subj17-24,2,23,dx,BlockProc2,350,m,480,0,8,m,LONG
Exp1_SingleTask_TiTo_Subj17-24,2,23,dx,BlockProc2,100,m,487,0,8,m,SHORT
Exp1_SingleTask_TiTo_Subj17-24,2,23,dx,BlockProc2,350,z,436,0,4,z,LONG
Exp1_SingleTask_TiTo_Subj17-24,2,23,dx,BlockProc2,150,z,582,100,2,z,SHORT
Exp1_SingleTask_TiTo_Subj17-24,2,23,dx,BlockProc2,150,z,594,100,3,z,SHORT
Exp1_SingleTask_TiTo_Subj17-24,2,23,dx,BlockProc2,100,z,681,100,3,z,SHORT
Exp1_SingleTask_TiTo_Subj17-24,2,23,dx,BlockProc2,150,m,492,100,6,m,SHORT
Exp1_SingleTask_TiTo_Subj17-24,2,23,dx,BlockProc2,100,m,604,100,7,m,SHORT
Exp1_SingleTask_TiTo_Subj17-24,2,23,dx,BlockProc2,150,m,435,0,8,m,SHORT
Exp1_SingleTask_TiTo_Subj17-24,2,23,dx,BlockProc2,100,m,529,100,8,m,SHORT
Exp1_SingleTask_TiTo_Subj17-24,2,23,dx,BlockProc2,350,m,394,100,8,m,LONG
Exp1_SingleTask_TiTo_Subj17-24,2,23,dx,BlockProc2,350,m,460,100,6,m,LONG
Exp1_SingleTask_TiTo_Subj17-24,2,23,dx,BlockProc2,350,m,392,100,7,m,LONG
Exp1_SingleTask_TiTo_Subj17-24,2,23,dx,BlockProc2,100,m,535,0,7,m,SHORT
Exp1_SingleTask_TiTo_Subj17-24,2,23,dx,BlockProc2,300,z,569,0,2,z,LONG
Exp1_SingleTask_TiTo_Subj17-24,2,23,dx,BlockProc2,300,m,503,100,6,m,LONG
Exp1_SingleTask_TiTo_Subj17-24,2,23,dx,BlockProc2,300,z,429,100,2,z,LONG
Exp1_SingleTask_TiTo_Subj17-24,2,23,dx,BlockProc2,100,m,580,100,7,m,SHORT
Exp1_SingleTask_TiTo_Subj17-24,2,23,dx,BlockProc2,150,m,566,100,6,m,SHORT
Exp1_SingleTask_TiTo_Subj17-24,2,23,dx,BlockProc2,150,z,493,0,4,z,SHORT
Exp1_SingleTask_TiTo_Subj17-24,2,23,dx,BlockProc2,300,m,440,100,6,m,LONG
Exp1_SingleTask_TiTo_Subj17-24,2,23,dx,BlockProc2,350,z,602,100,4,z,LONG
Exp1_SingleTask_TiTo_Subj17-24,2,23,dx,BlockProc2,100,z,590,100,2,z,SHORT
Exp1_SingleTask_TiTo_Subj17-24,2,23,dx,BlockProc2,350,z,422,0,2,z,LONG
Exp1_SingleTask_TiTo_Subj17-24,2,23,dx,BlockProc2,150,z,574,100,2,z,SHORT
Exp1_SingleTask_TiTo_Subj17-24,2,23,dx,BlockProc2,350,z,420,100,2,z,LONG
Exp1_SingleTask_TiTo_Subj17-24,2,23,dx,BlockProc2,300,z,359,100,3,z,LONG
Exp1_SingleTask_TiTo_Subj17-24,2,23,dx,BlockProc2,350,m,429,0,6,m,LONG
Exp1_SingleTask_TiTo_Subj17-24,2,23,dx,BlockProc2,100,m,462,0,8,m,SHORT
Exp1_SingleTask_TiTo_Subj17-24,2,23,dx,BlockProc2,300,m,374,0,8,m,LONG
Exp1_SingleTask_TiTo_Subj17-24,2,23,dx,BlockProc2,300,z,494,100,4,z,LONG
Exp1_SingleTask_TiTo_Subj17-24,2,23,dx,BlockProc2,150,z,484,0,3,z,SHORT
Exp1_SingleTask_TiTo_Subj17-24,2,23,dx,BlockProc2,150,m,528,100,7,m,SHORT
Exp1_SingleTask_TiTo_Subj17-24,2,23,dx,BlockProc2,150,z,574,100,4,z,SHORT
Exp1_SingleTask_TiTo_Subj17-24,2,23,dx,BlockProc2,100,m,517,100,6,m,SHORT
Exp1_SingleTask_TiTo_Subj17-24,2,23,dx,BlockProc2,100,z,509,0,2,z,SHORT
Exp1_SingleTask_TiTo_Subj17-24,2,23,dx,BlockProc2,350,m,396,100,8,m,LONG
Exp1_SingleTask_TiTo_Subj17-24,2,23,dx,BlockProc2,350,z,440,0,4,z,LONG
Exp1_SingleTask_TiTo_Subj17-24,2,23,dx,BlockProc2,300,z,420,0,4,z,LONG
Exp1_SingleTask_TiTo_Subj17-24,2,23,dx,BlockProc2,300,z,449,100,2,z,LONG
Exp1_SingleTask_TiTo_Subj17-24,2,23,dx,BlockProc2,150,z,561,100,3,z,SHORT
Exp1_SingleTask_TiTo_Subj17-24,2,23,dx,BlockProc2,300,m,457,0,7,m,LONG
Exp1_SingleTask_TiTo_Subj17-24,2,23,dx,BlockProc2,100,z,538,100,4,z,SHORT
Exp1_SingleTask_TiTo_Subj17-24,2,23,dx,BlockProc2,100,z,448,0,4,z,SHORT
Exp1_SingleTask_TiTo_Subj17-24,2,23,dx,BlockProc2,150,z,434,0,2,z,SHORT
Exp1_SingleTask_TiTo_Subj17-24,2,23,dx,BlockProc2,150,m,435,100,8,m,SHORT
Exp1_SingleTask_TiTo_Subj17-24,2,23,dx,BlockProc2,300,m,399,100,7,m,LONG
Exp1_SingleTask_TiTo_Subj17-24,2,23,dx,BlockProc2,150,m,390,0,8,m,SHORT
Exp1_SingleTask_TiTo_Subj17-24,2,23,dx,BlockProc2,350,m,405,0,7,m,LONG
Exp1_SingleTask_TiTo_Subj17-24,2,23,dx,BlockProc2,150,m,411,0,7,m,SHORT
Exp1_SingleTask_TiTo_Subj17-24,2,23,dx,BlockProc2,100,m,672,0,6,m,SHORT
Exp1_SingleTask_TiTo_Subj17-24,2,23,dx,BlockProc2,300,m,396,100,8,m,LONG
Exp1_SingleTask_TiTo_Subj17-24,2,23,dx,BlockProc2,350,m,407,100,7,m,LONG
Exp1_SingleTask_TiTo_Subj17-24,2,23,dx,BlockProc2,100,m,405,0,7,m,SHORT
Exp1_SingleTask_TiTo_Subj17-24,2,23,dx,BlockProc2,350,z,431,100,3,z,LONG
Exp1_SingleTask_TiTo_Subj17-24,2,23,dx,BlockProc2,350,m,428,100,6,m,LONG
Exp1_SingleTask_TiTo_Subj17-24,2,23,dx,BlockProc2,350,m,403,0,8,m,LONG
Exp1_SingleTask_TiTo_Subj17-24,2,23,dx,BlockProc2,100,m,520,100,8,m,SHORT
Exp1_SingleTask_TiTo_Subj17-24,2,23,dx,BlockProc2,350,z,447,0,3,z,LONG
Exp1_SingleTask_TiTo_Subj17-24,2,23,dx,BlockProc2,300,m,436,0,6,m,LONG
Exp1_SingleTask_TiTo_Subj17-24,2,23,dx,BlockProc2,150,m,517,0,6,m,SHORT
Exp1_SingleTask_TiTo_Subj17-24,2,23,dx,BlockProc2,300,z,528,0,3,z,LONG
Exp1_SingleTask_TiTo_Subj17-24,2,23,dx,BlockProc2,100,z,528,100,3,z,SHORT
Exp1_SingleTask_TiTo_Subj17-24,2,23,dx,BlockProc2,100,z,450,0,3,z,SHORT
Exp1_SingleTask_TiTo_Subj17-24,2,23,dx,BlockProc2,300,z,449,0,2,z,LONG
Exp1_SingleTask_TiTo_Subj17-24,2,23,dx,BlockProc3,350,m,546,100,6,m,LONG
Exp1_SingleTask_TiTo_Subj17-24,2,23,dx,BlockProc3,350,z,382,0,3,z,LONG
Exp1_SingleTask_TiTo_Subj17-24,2,23,dx,BlockProc3,100,m,458,0,6,m,SHORT
Exp1_SingleTask_TiTo_Subj17-24,2,23,dx,BlockProc3,300,m,426,100,8,m,LONG
Exp1_SingleTask_TiTo_Subj17-24,2,23,dx,BlockProc3,300,m,372,0,8,m,LONG
Exp1_SingleTask_TiTo_Subj17-24,2,23,dx,BlockProc3,300,z,486,100,2,z,LONG
Exp1_SingleTask_TiTo_Subj17-24,2,23,dx,BlockProc3,150,z,605,100,4,z,SHORT
Exp1_SingleTask_TiTo_Subj17-24,2,23,dx,BlockProc3,150,z,574,100,3,z,SHORT
Exp1_SingleTask_TiTo_Subj17-24,2,23,dx,BlockProc3,350,z,462,100,3,z,LONG
Exp1_SingleTask_TiTo_Subj17-24,2,23,dx,BlockProc3,300,m,437,100,6,m,LONG
Exp1_SingleTask_TiTo_Subj17-24,2,23,dx,BlockProc3,300,m,323,0,6,m,LONG
Exp1_SingleTask_TiTo_Subj17-24,2,23,dx,BlockProc3,150,m,566,100,7,m,SHORT
Exp1_SingleTask_TiTo_Subj17-24,2,23,dx,BlockProc3,100,z,728,100,4,z,SHORT
Exp1_SingleTask_TiTo_Subj17-24,2,23,dx,BlockProc3,100,m,523,100,6,m,SHORT
Exp1_SingleTask_TiTo_Subj17-24,2,23,dx,BlockProc3,350,m,392,0,6,m,LONG
Exp1_SingleTask_TiTo_Subj17-24,2,23,dx,BlockProc3,150,m,388,0,8,m,SHORT
Exp1_SingleTask_TiTo_Subj17-24,2,23,dx,BlockProc3,300,m,362,0,7,m,LONG
Exp1_SingleTask_TiTo_Subj17-24,2,23,dx,BlockProc3,300,z,444,100,3,z,LONG
Exp1_SingleTask_TiTo_Subj17-24,2,23,dx,BlockProc3,100,z,615,100,2,z,SHORT
Exp1_SingleTask_TiTo_Subj17-24,2,23,dx,BlockProc3,150,z,488,0,2,z,SHORT
Exp1_SingleTask_TiTo_Subj17-24,2,23,dx,BlockProc3,100,m,485,100,7,m,SHORT
Exp1_SingleTask_TiTo_Subj17-24,2,23,dx,BlockProc3,150,z,567,100,2,z,SHORT
Exp1_SingleTask_TiTo_Subj17-24,2,23,dx,BlockProc3,350,z,782,0,4,z,LONG
Exp1_SingleTask_TiTo_Subj17-24,2,23,dx,BlockProc3,100,m,508,0,7,m,SHORT
Exp1_SingleTask_TiTo_Subj17-24,2,23,dx,BlockProc3,100,z,600,0,3,z,SHORT
Exp1_SingleTask_TiTo_Subj17-24,2,23,dx,BlockProc3,350,z,526,0,2,z,LONG
Exp1_SingleTask_TiTo_Subj17-24,2,23,dx,BlockProc3,150,m,487,100,8,m,SHORT
Exp1_SingleTask_TiTo_Subj17-24,2,23,dx,BlockProc3,350,m,406,0,7,m,LONG
Exp1_SingleTask_TiTo_Subj17-24,2,23,dx,BlockProc3,300,z,408,0,2,z,LONG
Exp1_SingleTask_TiTo_Subj17-24,2,23,dx,BlockProc3,350,m,365,100,8,m,LONG
Exp1_SingleTask_TiTo_Subj17-24,2,23,dx,BlockProc3,350,m,351,0,8,m,LONG
Exp1_SingleTask_TiTo_Subj17-24,2,23,dx,BlockProc3,350,m,399,100,7,m,LONG
Exp1_SingleTask_TiTo_Subj17-24,2,23,dx,BlockProc3,150,z,464,0,4,z,SHORT
Exp1_SingleTask_TiTo_Subj17-24,2,23,dx,BlockProc3,100,z,503,0,2,z,SHORT
Exp1_SingleTask_TiTo_Subj17-24,2,23,dx,BlockProc3,100,z,687,100,3,z,SHORT
Exp1_SingleTask_TiTo_Subj17-24,2,23,dx,BlockProc3,350,z,561,100,4,z,LONG
Exp1_SingleTask_TiTo_Subj17-24,2,23,dx,BlockProc3,100,m,506,0,8,m,SHORT
Exp1_SingleTask_TiTo_Subj17-24,2,23,dx,BlockProc3,350,z,494,100,2,z,LONG
Exp1_SingleTask_TiTo_Subj17-24,2,23,dx,BlockProc3,300,z,494,100,4,z,LONG
Exp1_SingleTask_TiTo_Subj17-24,2,23,dx,BlockProc3,150,m,471,0,7,m,SHORT
Exp1_SingleTask_TiTo_Subj17-24,2,23,dx,BlockProc3,100,m,522,100,8,m,SHORT
Exp1_SingleTask_TiTo_Subj17-24,2,23,dx,BlockProc3,150,m,592,100,6,m,SHORT
Exp1_SingleTask_TiTo_Subj17-24,2,23,dx,BlockProc3,150,z,955,0,3,z,SHORT
Exp1_SingleTask_TiTo_Subj17-24,2,23,dx,BlockProc3,150,m,598,0,6,m,SHORT
Exp1_SingleTask_TiTo_Subj17-24,2,23,dx,BlockProc3,300,z,561,0,4,z,LONG
Exp1_SingleTask_TiTo_Subj17-24,2,23,dx,BlockProc3,100,z,558,0,4,z,SHORT
Exp1_SingleTask_TiTo_Subj17-24,2,23,dx,BlockProc3,300,m,522,100,7,m,LONG
Exp1_SingleTask_TiTo_Subj17-24,2,23,dx,BlockProc3,300,z,491,0,3,z,LONG
Exp1_SingleTask_TiTo_Subj17-24,2,23,dx,BlockProc3,100,m,520,100,6,m,SHORT
Exp1_SingleTask_TiTo_Subj17-24,2,23,dx,BlockProc3,100,z,571,0,2,z,SHORT
Exp1_SingleTask_TiTo_Subj17-24,2,23,dx,BlockProc3,300,z,605,100,4,z,LONG
Exp1_SingleTask_TiTo_Subj17-24,2,23,dx,BlockProc3,100,m,557,100,7,m,SHORT
Exp1_SingleTask_TiTo_Subj17-24,2,23,dx,BlockProc3,150,z,628,0,2,z,SHORT
Exp1_SingleTask_TiTo_Subj17-24,2,23,dx,BlockProc3,100,m,603,100,8,m,SHORT
Exp1_SingleTask_TiTo_Subj17-24,2,23,dx,BlockProc3,300,m,473,100,8,m,LONG
Exp1_SingleTask_TiTo_Subj17-24,2,23,dx,BlockProc3,300,z,485,0,4,z,LONG
Exp1_SingleTask_TiTo_Subj17-24,2,23,dx,BlockProc3,100,m,558,0,7,m,SHORT
Exp1_SingleTask_TiTo_Subj17-24,2,23,dx,BlockProc3,300,z,497,100,3,z,LONG
Exp1_SingleTask_TiTo_Subj17-24,2,23,dx,BlockProc3,350,m,448,100,8,m,LONG
Exp1_SingleTask_TiTo_Subj17-24,2,23,dx,BlockProc3,300,m,621,100,6,m,LONG
Exp1_SingleTask_TiTo_Subj17-24,2,23,dx,BlockProc3,350,m,475,100,7,m,LONG
Exp1_SingleTask_TiTo_Subj17-24,2,23,dx,BlockProc3,150,m,473,0,7,m,SHORT
Exp1_SingleTask_TiTo_Subj17-24,2,23,dx,BlockProc3,300,m,408,0,8,m,LONG
Exp1_SingleTask_TiTo_Subj17-24,2,23,dx,BlockProc3,150,m,816,100,7,m,SHORT
Exp1_SingleTask_TiTo_Subj17-24,2,23,dx,BlockProc3,100,z,418,0,3,z,SHORT
Exp1_SingleTask_TiTo_Subj17-24,2,23,dx,BlockProc3,300,m,393,0,7,m,LONG
Exp1_SingleTask_TiTo_Subj17-24,2,23,dx,BlockProc3,300,z,561,100,2,z,LONG
Exp1_SingleTask_TiTo_Subj17-24,2,23,dx,BlockProc3,150,m,442,100,8,m,SHORT
Exp1_SingleTask_TiTo_Subj17-24,2,23,dx,BlockProc3,100,z,498,100,3,z,SHORT
Exp1_SingleTask_TiTo_Subj17-24,2,23,dx,BlockProc3,350,z,489,0,4,z,LONG
Exp1_SingleTask_TiTo_Subj17-24,2,23,dx,BlockProc3,150,z,432,0,4,z,SHORT
Exp1_SingleTask_TiTo_Subj17-24,2,23,dx,BlockProc3,300,m,352,100,7,m,LONG
Exp1_SingleTask_TiTo_Subj17-24,2,23,dx,BlockProc3,150,m,310,0,8,m,SHORT
Exp1_SingleTask_TiTo_Subj17-24,2,23,dx,BlockProc3,350,z,417,0,2,z,LONG
Exp1_SingleTask_TiTo_Subj17-24,2,23,dx,BlockProc3,100,z,472,0,4,z,SHORT
Exp1_SingleTask_TiTo_Subj17-24,2,23,dx,BlockProc3,100,z,469,100,2,z,SHORT
Exp1_SingleTask_TiTo_Subj17-24,2,23,dx,BlockProc3,100,z,476,100,4,z,SHORT
Exp1_SingleTask_TiTo_Subj17-24,2,23,dx,BlockProc3,300,z,409,0,3,z,LONG
Exp1_SingleTask_TiTo_Subj17-24,2,23,dx,BlockProc3,150,z,498,100,3,z,SHORT
Exp1_SingleTask_TiTo_Subj17-24,2,23,dx,BlockProc3,100,m,453,0,6,m,SHORT
Exp1_SingleTask_TiTo_Subj17-24,2,23,dx,BlockProc3,300,z,434,0,2,z,LONG
Exp1_SingleTask_TiTo_Subj17-24,2,23,dx,BlockProc3,350,z,504,100,2,z,LONG
Exp1_SingleTask_TiTo_Subj17-24,2,23,dx,BlockProc3,100,m,430,0,8,m,SHORT
Exp1_SingleTask_TiTo_Subj17-24,2,23,dx,BlockProc3,350,m,427,0,7,m,LONG
Exp1_SingleTask_TiTo_Subj17-24,2,23,dx,BlockProc3,350,m,339,0,8,m,LONG
Exp1_SingleTask_TiTo_Subj17-24,2,23,dx,BlockProc3,150,z,489,100,2,z,SHORT
Exp1_SingleTask_TiTo_Subj17-24,2,23,dx,BlockProc3,150,z,425,0,3,z,SHORT
Exp1_SingleTask_TiTo_Subj17-24,2,23,dx,BlockProc3,350,z,505,100,4,z,LONG
Exp1_SingleTask_TiTo_Subj17-24,2,23,dx,BlockProc3,150,m,621,100,6,m,SHORT
Exp1_SingleTask_TiTo_Subj17-24,2,23,dx,BlockProc3,150,z,558,100,4,z,SHORT
Exp1_SingleTask_TiTo_Subj17-24,2,23,dx,BlockProc3,300,m,435,0,6,m,LONG
Exp1_SingleTask_TiTo_Subj17-24,2,23,dx,BlockProc3,350,z,574,100,3,z,LONG
Exp1_SingleTask_TiTo_Subj17-24,2,23,dx,BlockProc3,350,m,384,0,6,m,LONG
Exp1_SingleTask_TiTo_Subj17-24,2,23,dx,BlockProc3,350,z,452,0,3,z,LONG
Exp1_SingleTask_TiTo_Subj17-24,2,23,dx,BlockProc3,150,m,440,0,6,m,SHORT
Exp1_SingleTask_TiTo_Subj17-24,2,23,dx,BlockProc3,350,m,449,100,6,m,LONG
Exp1_SingleTask_TiTo_Subj17-24,2,23,dx,BlockProc3,300,m,365,0,6,m,LONG
Exp1_SingleTask_TiTo_Subj17-24,2,23,dx,BlockProc3,150,z,587,100,2,z,SHORT
Exp1_SingleTask_TiTo_Subj17-24,2,23,dx,BlockProc3,300,z,442,100,2,z,LONG
Exp1_SingleTask_TiTo_Subj17-24,2,23,dx,BlockProc3,100,z,631,100,3,z,SHORT
Exp1_SingleTask_TiTo_Subj17-24,2,23,dx,BlockProc3,100,m,500,0,6,m,SHORT
Exp1_SingleTask_TiTo_Subj17-24,2,23,dx,BlockProc3,150,z,581,100,4,z,SHORT
Exp1_SingleTask_TiTo_Subj17-24,2,23,dx,BlockProc3,150,z,529,0,3,z,SHORT
Exp1_SingleTask_TiTo_Subj17-24,2,23,dx,BlockProc3,350,z,627,0,4,z,LONG
Exp1_SingleTask_TiTo_Subj17-24,2,23,dx,BlockProc3,100,z,467,0,3,z,SHORT
Exp1_SingleTask_TiTo_Subj17-24,2,23,dx,BlockProc3,150,m,428,100,8,m,SHORT
Exp1_SingleTask_TiTo_Subj17-24,2,23,dx,BlockProc3,350,m,398,0,6,m,LONG
Exp1_SingleTask_TiTo_Subj17-24,2,23,dx,BlockProc3,350,z,562,0,3,z,LONG
Exp1_SingleTask_TiTo_Subj17-24,2,23,dx,BlockProc3,300,m,403,100,7,m,LONG
Exp1_SingleTask_TiTo_Subj17-24,2,23,dx,BlockProc3,150,m,475,100,6,m,SHORT
Exp1_SingleTask_TiTo_Subj17-24,2,23,dx,BlockProc3,350,m,385,100,7,m,LONG
Exp1_SingleTask_TiTo_Subj17-24,2,23,dx,BlockProc3,150,m,470,0,6,m,SHORT
Exp1_SingleTask_TiTo_Subj17-24,2,23,dx,BlockProc3,300,z,431,100,3,z,LONG
Exp1_SingleTask_TiTo_Subj17-24,2,23,dx,BlockProc3,150,z,419,0,2,z,SHORT
Exp1_SingleTask_TiTo_Subj17-24,2,23,dx,BlockProc3,300,z,486,100,4,z,LONG
Exp1_SingleTask_TiTo_Subj17-24,2,23,dx,BlockProc3,350,z,389,100,4,z,LONG
Exp1_SingleTask_TiTo_Subj17-24,2,23,dx,BlockProc3,100,z,678,100,2,z,SHORT
Exp1_SingleTask_TiTo_Subj17-24,2,23,dx,BlockProc3,350,m,381,100,6,m,LONG
Exp1_SingleTask_TiTo_Subj17-24,2,23,dx,BlockProc3,100,z,451,0,4,z,SHORT
Exp1_SingleTask_TiTo_Subj17-24,2,23,dx,BlockProc3,150,z,474,100,3,z,SHORT
Exp1_SingleTask_TiTo_Subj17-24,2,23,dx,BlockProc3,300,z,464,0,3,z,LONG
Exp1_SingleTask_TiTo_Subj17-24,2,23,dx,BlockProc3,350,m,387,0,7,m,LONG
Exp1_SingleTask_TiTo_Subj17-24,2,23,dx,BlockProc3,350,z,435,100,2,z,LONG
Exp1_SingleTask_TiTo_Subj17-24,2,23,dx,BlockProc3,150,m,565,100,7,space,SHORT
Exp1_SingleTask_TiTo_Subj17-24,2,23,dx,BlockProc3,150,m,436,0,7,m,SHORT
Exp1_SingleTask_TiTo_Subj17-24,2,23,dx,BlockProc3,100,m,462,0,8,m,SHORT
Exp1_SingleTask_TiTo_Subj17-24,2,23,dx,BlockProc3,350,m,458,100,8,m,LONG
Exp1_SingleTask_TiTo_Subj17-24,2,23,dx,BlockProc3,350,m,377,0,8,m,LONG
Exp1_SingleTask_TiTo_Subj17-24,2,23,dx,BlockProc3,150,z,443,0,4,z,SHORT
Exp1_SingleTask_TiTo_Subj17-24,2,23,dx,BlockProc3,350,z,552,100,3,z,LONG
Exp1_SingleTask_TiTo_Subj17-24,2,23,dx,BlockProc3,300,m,328,0,8,m,LONG
Exp1_SingleTask_TiTo_Subj17-24,2,23,dx,BlockProc3,300,m,342,0,7,m,LONG
Exp1_SingleTask_TiTo_Subj17-24,2,23,dx,BlockProc3,100,m,510,0,7,m,SHORT
Exp1_SingleTask_TiTo_Subj17-24,2,23,dx,BlockProc3,300,z,395,0,2,z,LONG
Exp1_SingleTask_TiTo_Subj17-24,2,23,dx,BlockProc3,300,m,439,100,8,m,LONG
Exp1_SingleTask_TiTo_Subj17-24,2,23,dx,BlockProc3,300,z,475,0,4,z,LONG
Exp1_SingleTask_TiTo_Subj17-24,2,23,dx,BlockProc3,350,z,519,0,2,z,LONG
Exp1_SingleTask_TiTo_Subj17-24,2,23,dx,BlockProc3,100,m,612,100,7,m,SHORT
Exp1_SingleTask_TiTo_Subj17-24,2,23,dx,BlockProc3,300,m,557,100,6,m,LONG
Exp1_SingleTask_TiTo_Subj17-24,2,23,dx,BlockProc3,100,m,496,100,8,m,SHORT
Exp1_SingleTask_TiTo_Subj17-24,2,23,dx,BlockProc3,150,m,429,0,8,m,SHORT
Exp1_SingleTask_TiTo_Subj17-24,2,23,dx,BlockProc3,100,z,585,100,4,z,SHORT
Exp1_SingleTask_TiTo_Subj17-24,2,23,dx,BlockProc3,100,z,577,0,2,z,SHORT
Exp1_SingleTask_TiTo_Subj17-24,2,23,dx,BlockProc3,100,m,564,100,6,m,SHORT
Exp1_SingleTask_TiTo_Subj17-24,2,23,dx,BlockProc4,300,m,700,0,8,m,LONG
Exp1_SingleTask_TiTo_Subj17-24,2,23,dx,BlockProc4,150,z,442,0,4,z,SHORT
Exp1_SingleTask_TiTo_Subj17-24,2,23,dx,BlockProc4,100,m,386,0,6,m,SHORT
Exp1_SingleTask_TiTo_Subj17-24,2,23,dx,BlockProc4,100,m,463,100,8,m,SHORT
Exp1_SingleTask_TiTo_Subj17-24,2,23,dx,BlockProc4,100,m,419,0,7,m,SHORT
Exp1_SingleTask_TiTo_Subj17-24,2,23,dx,BlockProc4,350,m,427,100,6,m,LONG
Exp1_SingleTask_TiTo_Subj17-24,2,23,dx,BlockProc4,150,m,495,0,7,m,SHORT
Exp1_SingleTask_TiTo_Subj17-24,2,23,dx,BlockProc4,300,m,482,100,6,m,LONG
Exp1_SingleTask_TiTo_Subj17-24,2,23,dx,BlockProc4,100,z,436,0,2,z,SHORT
Exp1_SingleTask_TiTo_Subj17-24,2,23,dx,BlockProc4,300,z,520,100,3,z,LONG
Exp1_SingleTask_TiTo_Subj17-24,2,23,dx,BlockProc4,150,z,511,100,3,z,SHORT
Exp1_SingleTask_TiTo_Subj17-24,2,23,dx,BlockProc4,350,z,500,100,2,z,LONG
Exp1_SingleTask_TiTo_Subj17-24,2,23,dx,BlockProc4,100,z,551,100,2,z,SHORT
Exp1_SingleTask_TiTo_Subj17-24,2,23,dx,BlockProc4,350,m,376,0,8,m,LONG
Exp1_SingleTask_TiTo_Subj17-24,2,23,dx,BlockProc4,350,m,449,100,7,m,LONG
Exp1_SingleTask_TiTo_Subj17-24,2,23,dx,BlockProc4,350,m,401,100,8,m,LONG
Exp1_SingleTask_TiTo_Subj17-24,2,23,dx,BlockProc4,350,z,452,0,4,z,LONG
Exp1_SingleTask_TiTo_Subj17-24,2,23,dx,BlockProc4,300,z,452,100,2,z,LONG
Exp1_SingleTask_TiTo_Subj17-24,2,23,dx,BlockProc4,150,z,784,100,4,z,SHORT
Exp1_SingleTask_TiTo_Subj17-24,2,23,dx,BlockProc4,300,m,444,100,7,m,LONG
Exp1_SingleTask_TiTo_Subj17-24,2,23,dx,BlockProc4,100,z,505,0,4,z,SHORT
Exp1_SingleTask_TiTo_Subj17-24,2,23,dx,BlockProc4,300,m,441,0,7,m,LONG
Exp1_SingleTask_TiTo_Subj17-24,2,23,dx,BlockProc4,350,z,428,0,3,z,LONG
Exp1_SingleTask_TiTo_Subj17-24,2,23,dx,BlockProc4,100,m,406,0,8,m,SHORT
Exp1_SingleTask_TiTo_Subj17-24,2,23,dx,BlockProc4,350,m,399,0,7,m,LONG
Exp1_SingleTask_TiTo_Subj17-24,2,23,dx,BlockProc4,150,m,383,0,8,m,SHORT
Exp1_SingleTask_TiTo_Subj17-24,2,23,dx,BlockProc4,300,z,429,100,4,z,LONG
Exp1_SingleTask_TiTo_Subj17-24,2,23,dx,BlockProc4,150,m,431,100,8,m,SHORT
Exp1_SingleTask_TiTo_Subj17-24,2,23,dx,BlockProc4,150,m,457,100,7,m,SHORT
Exp1_SingleTask_TiTo_Subj17-24,2,23,dx,BlockProc4,300,z,442,0,4,z,LONG
Exp1_SingleTask_TiTo_Subj17-24,2,23,dx,BlockProc4,350,z,596,0,2,z,LONG
Exp1_SingleTask_TiTo_Subj17-24,2,23,dx,BlockProc4,350,z,527,100,3,z,LONG
Exp1_SingleTask_TiTo_Subj17-24,2,23,dx,BlockProc4,100,m,512,100,7,m,SHORT
Exp1_SingleTask_TiTo_Subj17-24,2,23,dx,BlockProc4,350,m,489,0,6,m,LONG
Exp1_SingleTask_TiTo_Subj17-24,2,23,dx,BlockProc4,100,m,578,100,6,m,SHORT
Exp1_SingleTask_TiTo_Subj17-24,2,23,dx,BlockProc4,300,m,517,100,8,m,LONG
Exp1_SingleTask_TiTo_Subj17-24,2,23,dx,BlockProc4,150,m,535,0,6,m,SHORT
Exp1_SingleTask_TiTo_Subj17-24,2,23,dx,BlockProc4,100,z,544,100,4,z,SHORT
Exp1_SingleTask_TiTo_Subj17-24,2,23,dx,BlockProc4,150,m,615,100,6,m,SHORT
Exp1_SingleTask_TiTo_Subj17-24,2,23,dx,BlockProc4,150,z,625,0,2,z,SHORT
Exp1_SingleTask_TiTo_Subj17-24,2,23,dx,BlockProc4,100,z,560,100,3,z,SHORT
Exp1_SingleTask_TiTo_Subj17-24,2,23,dx,BlockProc4,100,z,521,0,3,z,SHORT
Exp1_SingleTask_TiTo_Subj17-24,2,23,dx,BlockProc4,150,z,438,0,3,z,SHORT
Exp1_SingleTask_TiTo_Subj17-24,2,23,dx,BlockProc4,150,z,519,100,2,z,SHORT
Exp1_SingleTask_TiTo_Subj17-24,2,23,dx,BlockProc4,350,z,604,100,4,z,LONG
Exp1_SingleTask_TiTo_Subj17-24,2,23,dx,BlockProc4,300,m,431,0,6,m,LONG
Exp1_SingleTask_TiTo_Subj17-24,2,23,dx,BlockProc4,300,z,498,0,2,z,LONG
Exp1_SingleTask_TiTo_Subj17-24,2,23,dx,BlockProc4,300,z,690,0,3,z,LONG
Exp1_SingleTask_TiTo_Subj17-24,2,23,dx,BlockProc4,350,m,385,0,8,m,LONG
Exp1_SingleTask_TiTo_Subj17-24,2,23,dx,BlockProc4,150,z,570,0,2,z,SHORT
Exp1_SingleTask_TiTo_Subj17-24,2,23,dx,BlockProc4,100,z,510,0,3,z,SHORT
Exp1_SingleTask_TiTo_Subj17-24,2,23,dx,BlockProc4,300,z,466,100,2,z,LONG
Exp1_SingleTask_TiTo_Subj17-24,2,23,dx,BlockProc4,350,z,482,0,2,z,LONG
Exp1_SingleTask_TiTo_Subj17-24,2,23,dx,BlockProc4,300,m,437,0,6,m,LONG
Exp1_SingleTask_TiTo_Subj17-24,2,23,dx,BlockProc4,150,z,596,100,4,z,SHORT
Exp1_SingleTask_TiTo_Subj17-24,2,23,dx,BlockProc4,150,z,446,0,3,z,SHORT
Exp1_SingleTask_TiTo_Subj17-24,2,23,dx,BlockProc4,350,m,408,0,7,m,LONG
Exp1_SingleTask_TiTo_Subj17-24,2,23,dx,BlockProc4,350,z,437,100,3,z,LONG
Exp1_SingleTask_TiTo_Subj17-24,2,23,dx,BlockProc4,100,z,500,100,3,z,SHORT
Exp1_SingleTask_TiTo_Subj17-24,2,23,dx,BlockProc4,300,m,397,100,8,m,LONG
Exp1_SingleTask_TiTo_Subj17-24,2,23,dx,BlockProc4,100,m,558,0,6,m,SHORT
Exp1_SingleTask_TiTo_Subj17-24,2,23,dx,BlockProc4,300,z,553,100,3,z,LONG
Exp1_SingleTask_TiTo_Subj17-24,2,23,dx,BlockProc4,350,m,420,100,8,m,LONG
Exp1_SingleTask_TiTo_Subj17-24,2,23,dx,BlockProc4,150,m,444,0,8,m,SHORT
Exp1_SingleTask_TiTo_Subj17-24,2,23,dx,BlockProc4,300,m,398,100,7,m,LONG
Exp1_SingleTask_TiTo_Subj17-24,2,23,dx,BlockProc4,150,m,414,0,7,m,SHORT
Exp1_SingleTask_TiTo_Subj17-24,2,23,dx,BlockProc4,350,z,419,100,2,z,LONG
Exp1_SingleTask_TiTo_Subj17-24,2,23,dx,BlockProc4,300,m,355,0,7,m,LONG
Exp1_SingleTask_TiTo_Subj17-24,2,23,dx,BlockProc4,350,z,555,100,4,z,LONG
Exp1_SingleTask_TiTo_Subj17-24,2,23,dx,BlockProc4,350,z,482,0,3,z,LONG
Exp1_SingleTask_TiTo_Subj17-24,2,23,dx,BlockProc4,300,z,470,0,3,z,LONG
Exp1_SingleTask_TiTo_Subj17-24,2,23,dx,BlockProc4,100,z,499,100,2,z,SHORT
Exp1_SingleTask_TiTo_Subj17-24,2,23,dx,BlockProc4,350,m,429,100,6,m,LONG
Exp1_SingleTask_TiTo_Subj17-24,2,23,dx,BlockProc4,350,m,400,0,6,m,LONG
Exp1_SingleTask_TiTo_Subj17-24,2,23,dx,BlockProc4,150,m,479,100,8,m,SHORT
Exp1_SingleTask_TiTo_Subj17-24,2,23,dx,BlockProc4,350,m,373,100,7,m,LONG
Exp1_SingleTask_TiTo_Subj17-24,2,23,dx,BlockProc4,150,m,493,100,6,m,SHORT
Exp1_SingleTask_TiTo_Subj17-24,2,23,dx,BlockProc4,150,m,428,0,6,m,SHORT
Exp1_SingleTask_TiTo_Subj17-24,2,23,dx,BlockProc4,300,m,436,100,6,m,LONG
Exp1_SingleTask_TiTo_Subj17-24,2,23,dx,BlockProc4,100,z,539,100,4,z,SHORT
Exp1_SingleTask_TiTo_Subj17-24,2,23,dx,BlockProc4,150,z,454,100,2,z,SHORT
Exp1_SingleTask_TiTo_Subj17-24,2,23,dx,BlockProc4,150,z,382,0,4,z,SHORT
Exp1_SingleTask_TiTo_Subj17-24,2,23,dx,BlockProc4,100,m,490,100,7,m,SHORT
Exp1_SingleTask_TiTo_Subj17-24,2,23,dx,BlockProc4,150,z,482,100,3,z,SHORT
Exp1_SingleTask_TiTo_Subj17-24,2,23,dx,BlockProc4,300,z,575,0,4,z,LONG
Exp1_SingleTask_TiTo_Subj17-24,2,23,dx,BlockProc4,150,m,443,100,7,m,SHORT
Exp1_SingleTask_TiTo_Subj17-24,2,23,dx,BlockProc4,300,m,429,0,8,m,LONG
Exp1_SingleTask_TiTo_Subj17-24,2,23,dx,BlockProc4,100,m,464,0,7,m,SHORT
Exp1_SingleTask_TiTo_Subj17-24,2,23,dx,BlockProc4,300,z,471,0,2,z,LONG
Exp1_SingleTask_TiTo_Subj17-24,2,23,dx,BlockProc4,100,m,628,100,6,m,SHORT
Exp1_SingleTask_TiTo_Subj17-24,2,23,dx,BlockProc4,100,z,463,0,2,z,SHORT
Exp1_SingleTask_TiTo_Subj17-24,2,23,dx,BlockProc4,300,z,490,100,4,z,LONG
Exp1_SingleTask_TiTo_Subj17-24,2,23,dx,BlockProc4,100,m,388,0,8,m,SHORT
Exp1_SingleTask_TiTo_Subj17-24,2,23,dx,BlockProc4,350,z,480,0,4,z,LONG
Exp1_SingleTask_TiTo_Subj17-24,2,23,dx,BlockProc4,100,z,586,0,4,z,SHORT
Exp1_SingleTask_TiTo_Subj17-24,2,23,dx,BlockProc4,100,m,539,100,8,m,SHORT
Exp1_SingleTask_TiTo_Subj17-24,2,23,dx,BlockProc4,100,z,439,0,4,z,SHORT
Exp1_SingleTask_TiTo_Subj17-24,2,23,dx,BlockProc4,100,m,376,0,8,m,SHORT
Exp1_SingleTask_TiTo_Subj17-24,2,23,dx,BlockProc4,350,z,365,0,4,z,LONG
Exp1_SingleTask_TiTo_Subj17-24,2,23,dx,BlockProc4,150,m,412,100,8,m,SHORT
Exp1_SingleTask_TiTo_Subj17-24,2,23,dx,BlockProc4,100,z,451,100,4,z,SHORT
Exp1_SingleTask_TiTo_Subj17-24,2,23,dx,BlockProc4,350,m,436,100,7,m,LONG
Exp1_SingleTask_TiTo_Subj17-24,2,23,dx,BlockProc4,300,m,389,100,7,m,LONG
Exp1_SingleTask_TiTo_Subj17-24,2,23,dx,BlockProc4,100,z,511,100,3,z,SHORT
Exp1_SingleTask_TiTo_Subj17-24,2,23,dx,BlockProc4,300,z,459,100,3,z,LONG
Exp1_SingleTask_TiTo_Subj17-24,2,23,dx,BlockProc4,100,z,480,100,2,z,SHORT
Exp1_SingleTask_TiTo_Subj17-24,2,23,dx,BlockProc4,100,m,480,100,7,m,SHORT
Exp1_SingleTask_TiTo_Subj17-24,2,23,dx,BlockProc4,150,m,428,0,8,m,SHORT
Exp1_SingleTask_TiTo_Subj17-24,2,23,dx,BlockProc4,300,m,386,0,8,m,LONG
Exp1_SingleTask_TiTo_Subj17-24,2,23,dx,BlockProc4,300,m,331,0,7,m,LONG
Exp1_SingleTask_TiTo_Subj17-24,2,23,dx,BlockProc4,100,m,712,100,6,m,SHORT
Exp1_SingleTask_TiTo_Subj17-24,2,23,dx,BlockProc4,300,z,452,100,2,z,LONG
Exp1_SingleTask_TiTo_Subj17-24,2,23,dx,BlockProc4,350,m,421,100,8,m,LONG
Exp1_SingleTask_TiTo_Subj17-24,2,23,dx,BlockProc4,150,m,458,100,7,m,SHORT
Exp1_SingleTask_TiTo_Subj17-24,2,23,dx,BlockProc4,100,z,444,0,2,z,SHORT
Exp1_SingleTask_TiTo_Subj17-24,2,23,dx,BlockProc4,150,z,490,100,2,z,SHORT
Exp1_SingleTask_TiTo_Subj17-24,2,23,dx,BlockProc4,100,m,407,0,6,m,SHORT
Exp1_SingleTask_TiTo_Subj17-24,2,23,dx,BlockProc4,150,m,384,0,6,m,SHORT
Exp1_SingleTask_TiTo_Subj17-24,2,23,dx,BlockProc4,350,z,491,100,2,z,LONG
Exp1_SingleTask_TiTo_Subj17-24,2,23,dx,BlockProc4,300,m,346,0,6,m,LONG
Exp1_SingleTask_TiTo_Subj17-24,2,23,dx,BlockProc4,350,z,378,100,4,z,LONG
Exp1_SingleTask_TiTo_Subj17-24,2,23,dx,BlockProc4,150,z,463,0,4,z,SHORT
Exp1_SingleTask_TiTo_Subj17-24,2,23,dx,BlockProc4,150,m,480,0,7,m,SHORT
Exp1_SingleTask_TiTo_Subj17-24,2,23,dx,BlockProc4,300,m,578,100,6,m,LONG
Exp1_SingleTask_TiTo_Subj17-24,2,23,dx,BlockProc4,350,z,387,0,2,z,LONG
Exp1_SingleTask_TiTo_Subj17-24,2,23,dx,BlockProc4,350,z,488,100,3,z,LONG
Exp1_SingleTask_TiTo_Subj17-24,2,23,dx,BlockProc4,300,z,465,100,4,z,LONG
Exp1_SingleTask_TiTo_Subj17-24,2,23,dx,BlockProc4,150,z,508,0,2,z,SHORT
Exp1_SingleTask_TiTo_Subj17-24,2,23,dx,BlockProc4,150,z,495,0,3,z,SHORT
Exp1_SingleTask_TiTo_Subj17-24,2,23,dx,BlockProc4,150,z,401,100,4,z,SHORT
Exp1_SingleTask_TiTo_Subj17-24,2,23,dx,BlockProc4,100,z,489,0,3,z,SHORT
Exp1_SingleTask_TiTo_Subj17-24,2,23,dx,BlockProc4,300,m,412,100,8,m,LONG
Exp1_SingleTask_TiTo_Subj17-24,2,23,dx,BlockProc4,350,z,461,0,3,z,LONG
Exp1_SingleTask_TiTo_Subj17-24,2,23,dx,BlockProc4,300,z,418,0,3,z,LONG
Exp1_SingleTask_TiTo_Subj17-24,2,23,dx,BlockProc4,300,z,457,0,2,z,LONG
Exp1_SingleTask_TiTo_Subj17-24,2,23,dx,BlockProc4,350,m,475,0,6,m,LONG
Exp1_SingleTask_TiTo_Subj17-24,2,23,dx,BlockProc4,350,m,509,100,6,m,LONG
Exp1_SingleTask_TiTo_Subj17-24,2,23,dx,BlockProc4,300,z,666,0,4,z,LONG
Exp1_SingleTask_TiTo_Subj17-24,2,23,dx,BlockProc4,350,m,367,0,7,m,LONG
Exp1_SingleTask_TiTo_Subj17-24,2,23,dx,BlockProc4,150,z,478,100,3,z,SHORT
Exp1_SingleTask_TiTo_Subj17-24,2,23,dx,BlockProc4,350,m,348,0,8,m,LONG
Exp1_SingleTask_TiTo_Subj17-24,2,23,dx,BlockProc4,150,m,506,100,6,m,SHORT
Exp1_SingleTask_TiTo_Subj17-24,2,23,dx,BlockProc4,100,m,442,100,8,m,SHORT
Exp1_SingleTask_TiTo_Subj17-24,2,23,dx,BlockProc4,100,m,475,0,7,m,SHORT
Exp1_SingleTask_TiTo_Subj17-24,20,23,dx,BlockProc1,350,z,706,100,4,z,LONG
Exp1_SingleTask_TiTo_Subj17-24,20,23,dx,BlockProc1,350,m,611,100,8,m,LONG
Exp1_SingleTask_TiTo_Subj17-24,20,23,dx,BlockProc1,150,z,935,100,4,z,SHORT
Exp1_SingleTask_TiTo_Subj17-24,20,23,dx,BlockProc1,150,z,684,0,2,z,SHORT
Exp1_SingleTask_TiTo_Subj17-24,20,23,dx,BlockProc1,100,m,704,100,6,m,SHORT
Exp1_SingleTask_TiTo_Subj17-24,20,23,dx,BlockProc1,300,m,555,100,6,m,LONG
Exp1_SingleTask_TiTo_Subj17-24,20,23,dx,BlockProc1,350,z,591,0,2,z,LONG
Exp1_SingleTask_TiTo_Subj17-24,20,23,dx,BlockProc1,150,m,714,100,7,m,SHORT
Exp1_SingleTask_TiTo_Subj17-24,20,23,dx,BlockProc1,100,z,664,100,4,z,SHORT
Exp1_SingleTask_TiTo_Subj17-24,20,23,dx,BlockProc1,150,z,549,100,2,z,SHORT
Exp1_SingleTask_TiTo_Subj17-24,20,23,dx,BlockProc1,350,m,530,0,6,m,LONG
Exp1_SingleTask_TiTo_Subj17-24,20,23,dx,BlockProc1,150,m,528,0,6,m,SHORT
Exp1_SingleTask_TiTo_Subj17-24,20,23,dx,BlockProc1,100,z,515,0,2,z,SHORT
Exp1_SingleTask_TiTo_Subj17-24,20,23,dx,BlockProc1,300,z,876,0,4,z,LONG
Exp1_SingleTask_TiTo_Subj17-24,20,23,dx,BlockProc1,150,m,592,0,7,m,SHORT
Exp1_SingleTask_TiTo_Subj17-24,20,23,dx,BlockProc1,150,m,528,100,8,m,SHORT
Exp1_SingleTask_TiTo_Subj17-24,20,23,dx,BlockProc1,300,m,486,0,6,z,LONG
Exp1_SingleTask_TiTo_Subj17-24,20,23,dx,BlockProc1,350,z,616,0,3,z,LONG
Exp1_SingleTask_TiTo_Subj17-24,20,23,dx,BlockProc1,100,z,758,100,2,z,SHORT
Exp1_SingleTask_TiTo_Subj17-24,20,23,dx,BlockProc1,300,z,644,0,2,z,LONG
Exp1_SingleTask_TiTo_Subj17-24,20,23,dx,BlockProc1,300,m,487,0,8,m,LONG
Exp1_SingleTask_TiTo_Subj17-24,20,23,dx,BlockProc1,150,m,646,0,8,m,SHORT
Exp1_SingleTask_TiTo_Subj17-24,20,23,dx,BlockProc1,350,z,675,0,4,z,LONG
Exp1_SingleTask_TiTo_Subj17-24,20,23,dx,BlockProc1,100,m,720,0,6,m,SHORT
Exp1_SingleTask_TiTo_Subj17-24,20,23,dx,BlockProc1,300,z,633,0,3,z,LONG
Exp1_SingleTask_TiTo_Subj17-24,20,23,dx,BlockProc1,100,m,644,0,7,m,SHORT
Exp1_SingleTask_TiTo_Subj17-24,20,23,dx,BlockProc1,150,z,631,0,4,z,SHORT
Exp1_SingleTask_TiTo_Subj17-24,20,23,dx,BlockProc1,100,m,640,100,8,m,SHORT
Exp1_SingleTask_TiTo_Subj17-24,20,23,dx,BlockProc1,350,m,890,100,6,m,LONG
Exp1_SingleTask_TiTo_Subj17-24,20,23,dx,BlockProc1,300,m,624,100,8,m,LONG
Exp1_SingleTask_TiTo_Subj17-24,20,23,dx,BlockProc1,300,z,656,100,4,z,LONG
Exp1_SingleTask_TiTo_Subj17-24,20,23,dx,BlockProc1,100,z,731,0,3,z,SHORT
Exp1_SingleTask_TiTo_Subj17-24,20,23,dx,BlockProc1,300,z,629,100,3,z,LONG
Exp1_SingleTask_TiTo_Subj17-24,20,23,dx,BlockProc1,150,z,571,100,3,z,SHORT
Exp1_SingleTask_TiTo_Subj17-24,20,23,dx,BlockProc1,350,m,553,0,7,m,LONG
Exp1_SingleTask_TiTo_Subj17-24,20,23,dx,BlockProc1,100,z,658,0,4,z,SHORT
Exp1_SingleTask_TiTo_Subj17-24,20,23,dx,BlockProc1,350,z,582,100,3,z,LONG
Exp1_SingleTask_TiTo_Subj17-24,20,23,dx,BlockProc1,300,m,674,0,7,m,LONG
Exp1_SingleTask_TiTo_Subj17-24,20,23,dx,BlockProc1,300,z,594,100,2,z,LONG
Exp1_SingleTask_TiTo_Subj17-24,20,23,dx,BlockProc1,100,z,826,100,3,z,SHORT
Exp1_SingleTask_TiTo_Subj17-24,20,23,dx,BlockProc1,350,m,515,0,8,m,LONG
Exp1_SingleTask_TiTo_Subj17-24,20,23,dx,BlockProc1,100,m,601,100,7,m,SHORT
Exp1_SingleTask_TiTo_Subj17-24,20,23,dx,BlockProc1,350,z,620,100,2,z,LONG
Exp1_SingleTask_TiTo_Subj17-24,20,23,dx,BlockProc1,350,m,604,100,7,m,LONG
Exp1_SingleTask_TiTo_Subj17-24,20,23,dx,BlockProc1,150,z,559,0,3,z,SHORT
Exp1_SingleTask_TiTo_Subj17-24,20,23,dx,BlockProc1,150,m,622,100,6,m,SHORT
Exp1_SingleTask_TiTo_Subj17-24,20,23,dx,BlockProc1,100,m,571,0,8,m,SHORT
Exp1_SingleTask_TiTo_Subj17-24,20,23,dx,BlockProc1,300,m,704,100,7,m,LONG
Exp1_SingleTask_TiTo_Subj17-24,20,23,dx,BlockProc1,150,m,717,0,6,m,SHORT
Exp1_SingleTask_TiTo_Subj17-24,20,23,dx,BlockProc1,100,z,647,100,3,z,SHORT
Exp1_SingleTask_TiTo_Subj17-24,20,23,dx,BlockProc1,300,m,457,0,8,m,LONG
Exp1_SingleTask_TiTo_Subj17-24,20,23,dx,BlockProc1,300,m,544,0,7,m,LONG
Exp1_SingleTask_TiTo_Subj17-24,20,23,dx,BlockProc1,150,m,494,0,7,m,SHORT
Exp1_SingleTask_TiTo_Subj17-24,20,23,dx,BlockProc1,100,z,591,0,4,z,SHORT
Exp1_SingleTask_TiTo_Subj17-24,20,23,dx,BlockProc1,100,z,650,100,4,z,SHORT
Exp1_SingleTask_TiTo_Subj17-24,20,23,dx,BlockProc1,150,m,580,100,8,m,SHORT
Exp1_SingleTask_TiTo_Subj17-24,20,23,dx,BlockProc1,350,m,562,0,8,m,LONG
Exp1_SingleTask_TiTo_Subj17-24,20,23,dx,BlockProc1,150,z,609,0,3,z,SHORT
Exp1_SingleTask_TiTo_Subj17-24,20,23,dx,BlockProc1,300,z,559,100,4,z,LONG
Exp1_SingleTask_TiTo_Subj17-24,20,23,dx,BlockProc1,300,z,470,0,3,z,LONG
Exp1_SingleTask_TiTo_Subj17-24,20,23,dx,BlockProc1,150,z,535,100,4,z,SHORT
Exp1_SingleTask_TiTo_Subj17-24,20,23,dx,BlockProc1,150,m,505,0,8,m,SHORT
Exp1_SingleTask_TiTo_Subj17-24,20,23,dx,BlockProc1,100,z,561,0,2,z,SHORT
Exp1_SingleTask_TiTo_Subj17-24,20,23,dx,BlockProc1,100,m,741,100,6,m,SHORT
Exp1_SingleTask_TiTo_Subj17-24,20,23,dx,BlockProc1,300,m,477,100,8,m,LONG
Exp1_SingleTask_TiTo_Subj17-24,20,23,dx,BlockProc1,350,m,477,100,6,m,LONG
Exp1_SingleTask_TiTo_Subj17-24,20,23,dx,BlockProc1,350,m,517,100,7,m,LONG
Exp1_SingleTask_TiTo_Subj17-24,20,23,dx,BlockProc1,350,z,583,0,2,z,LONG
Exp1_SingleTask_TiTo_Subj17-24,20,23,dx,BlockProc1,100,m,544,100,8,m,SHORT
Exp1_SingleTask_TiTo_Subj17-24,20,23,dx,BlockProc1,300,m,759,0,6,m,LONG
Exp1_SingleTask_TiTo_Subj17-24,20,23,dx,BlockProc1,100,z,521,0,3,z,SHORT
Exp1_SingleTask_TiTo_Subj17-24,20,23,dx,BlockProc1,100,m,532,0,7,m,SHORT
Exp1_SingleTask_TiTo_Subj17-24,20,23,dx,BlockProc1,300,z,578,0,2,z,LONG
Exp1_SingleTask_TiTo_Subj17-24,20,23,dx,BlockProc1,350,z,552,100,2,z,LONG
Exp1_SingleTask_TiTo_Subj17-24,20,23,dx,BlockProc1,300,m,497,100,7,m,LONG
Exp1_SingleTask_TiTo_Subj17-24,20,23,dx,BlockProc1,100,m,675,0,6,m,SHORT
Exp1_SingleTask_TiTo_Subj17-24,20,23,dx,BlockProc1,350,m,483,100,8,m,LONG
Exp1_SingleTask_TiTo_Subj17-24,20,23,dx,BlockProc1,300,z,675,100,3,z,LONG
Exp1_SingleTask_TiTo_Subj17-24,20,23,dx,BlockProc1,150,z,529,0,2,z,SHORT
Exp1_SingleTask_TiTo_Subj17-24,20,23,dx,BlockProc1,300,z,625,0,4,z,LONG
Exp1_SingleTask_TiTo_Subj17-24,20,23,dx,BlockProc1,350,z,489,100,3,z,LONG
Exp1_SingleTask_TiTo_Subj17-24,20,23,dx,BlockProc1,300,m,573,100,6,m,LONG
Exp1_SingleTask_TiTo_Subj17-24,20,23,dx,BlockProc1,100,z,567,100,2,z,SHORT
Exp1_SingleTask_TiTo_Subj17-24,20,23,dx,BlockProc1,350,z,533,0,4,z,LONG
Exp1_SingleTask_TiTo_Subj17-24,20,23,dx,BlockProc1,150,z,504,0,4,z,SHORT
Exp1_SingleTask_TiTo_Subj17-24,20,23,dx,BlockProc1,100,m,583,100,7,m,SHORT
Exp1_SingleTask_TiTo_Subj17-24,20,23,dx,BlockProc1,100,m,632,0,8,m,SHORT
Exp1_SingleTask_TiTo_Subj17-24,20,23,dx,BlockProc1,350,z,528,0,3,z,LONG
Exp1_SingleTask_TiTo_Subj17-24,20,23,dx,BlockProc1,300,z,530,100,2,z,LONG
Exp1_SingleTask_TiTo_Subj17-24,20,23,dx,BlockProc1,150,m,594,100,7,m,SHORT
Exp1_SingleTask_TiTo_Subj17-24,20,23,dx,BlockProc1,150,m,719,100,6,m,SHORT
Exp1_SingleTask_TiTo_Subj17-24,20,23,dx,BlockProc1,150,z,612,100,3,z,SHORT
Exp1_SingleTask_TiTo_Subj17-24,20,23,dx,BlockProc1,150,z,615,100,2,z,SHORT
Exp1_SingleTask_TiTo_Subj17-24,20,23,dx,BlockProc1,350,z,705,100,4,z,LONG
Exp1_SingleTask_TiTo_Subj17-24,20,23,dx,BlockProc1,350,m,509,0,7,m,LONG
Exp1_SingleTask_TiTo_Subj17-24,20,23,dx,BlockProc1,350,m,498,0,6,m,LONG
Exp1_SingleTask_TiTo_Subj17-24,20,23,dx,BlockProc1,300,m,493,100,8,m,LONG
Exp1_SingleTask_TiTo_Subj17-24,20,23,dx,BlockProc1,100,z,542,0,2,z,SHORT
Exp1_SingleTask_TiTo_Subj17-24,20,23,dx,BlockProc1,150,m,567,0,6,m,SHORT
Exp1_SingleTask_TiTo_Subj17-24,20,23,dx,BlockProc1,350,m,511,100,8,m,LONG
Exp1_SingleTask_TiTo_Subj17-24,20,23,dx,BlockProc1,350,z,579,100,3,z,LONG
Exp1_SingleTask_TiTo_Subj17-24,20,23,dx,BlockProc1,300,z,530,100,3,z,LONG
Exp1_SingleTask_TiTo_Subj17-24,20,23,dx,BlockProc1,350,m,563,0,8,m,LONG
Exp1_SingleTask_TiTo_Subj17-24,20,23,dx,BlockProc1,100,z,637,100,2,z,SHORT
Exp1_SingleTask_TiTo_Subj17-24,20,23,dx,BlockProc1,350,m,541,0,6,m,LONG
Exp1_SingleTask_TiTo_Subj17-24,20,23,dx,BlockProc1,300,z,451,0,4,z,LONG
Exp1_SingleTask_TiTo_Subj17-24,20,23,dx,BlockProc1,150,z,523,100,2,z,SHORT
Exp1_SingleTask_TiTo_Subj17-24,20,23,dx,BlockProc1,100,m,499,100,8,m,SHORT
Exp1_SingleTask_TiTo_Subj17-24,20,23,dx,BlockProc1,350,z,439,0,2,z,LONG
Exp1_SingleTask_TiTo_Subj17-24,20,23,dx,BlockProc1,350,z,460,0,4,z,LONG
Exp1_SingleTask_TiTo_Subj17-24,20,23,dx,BlockProc1,300,z,675,0,3,z,LONG
Exp1_SingleTask_TiTo_Subj17-24,20,23,dx,BlockProc1,100,z,697,0,4,z,SHORT
Exp1_SingleTask_TiTo_Subj17-24,20,23,dx,BlockProc1,100,z,564,100,3,z,SHORT
Exp1_SingleTask_TiTo_Subj17-24,20,23,dx,BlockProc1,100,m,523,0,7,m,SHORT
Exp1_SingleTask_TiTo_Subj17-24,20,23,dx,BlockProc1,300,z,453,0,2,z,LONG
Exp1_SingleTask_TiTo_Subj17-24,20,23,dx,BlockProc1,350,z,456,100,2,z,LONG
Exp1_SingleTask_TiTo_Subj17-24,20,23,dx,BlockProc1,150,z,721,100,3,z,SHORT
Exp1_SingleTask_TiTo_Subj17-24,20,23,dx,BlockProc1,100,z,526,0,3,z,SHORT
Exp1_SingleTask_TiTo_Subj17-24,20,23,dx,BlockProc1,300,m,574,0,6,m,LONG
Exp1_SingleTask_TiTo_Subj17-24,20,23,dx,BlockProc1,350,m,412,100,7,m,LONG
Exp1_SingleTask_TiTo_Subj17-24,20,23,dx,BlockProc1,350,z,553,0,3,z,LONG
Exp1_SingleTask_TiTo_Subj17-24,20,23,dx,BlockProc1,300,z,600,100,4,z,LONG
Exp1_SingleTask_TiTo_Subj17-24,20,23,dx,BlockProc1,150,m,534,100,8,m,SHORT
Exp1_SingleTask_TiTo_Subj17-24,20,23,dx,BlockProc1,300,m,606,0,7,m,LONG
Exp1_SingleTask_TiTo_Subj17-24,20,23,dx,BlockProc1,350,m,472,0,7,m,LONG
Exp1_SingleTask_TiTo_Subj17-24,20,23,dx,BlockProc1,350,z,682,100,4,z,LONG
Exp1_SingleTask_TiTo_Subj17-24,20,23,dx,BlockProc1,150,m,627,100,6,m,SHORT
Exp1_SingleTask_TiTo_Subj17-24,20,23,dx,BlockProc1,150,z,523,0,3,z,SHORT
Exp1_SingleTask_TiTo_Subj17-24,20,23,dx,BlockProc1,350,m,547,100,6,space,LONG
Exp1_SingleTask_TiTo_Subj17-24,20,23,dx,BlockProc1,100,m,971,0,8,m,SHORT
Exp1_SingleTask_TiTo_Subj17-24,20,23,dx,BlockProc1,100,z,631,100,4,z,SHORT
Exp1_SingleTask_TiTo_Subj17-24,20,23,dx,BlockProc1,100,m,609,100,7,m,SHORT
Exp1_SingleTask_TiTo_Subj17-24,20,23,dx,BlockProc1,300,m,526,100,6,m,LONG
Exp1_SingleTask_TiTo_Subj17-24,20,23,dx,BlockProc1,150,z,730,100,4,z,SHORT
Exp1_SingleTask_TiTo_Subj17-24,20,23,dx,BlockProc1,100,m,645,100,6,m,SHORT
Exp1_SingleTask_TiTo_Subj17-24,20,23,dx,BlockProc1,300,z,639,100,2,z,LONG
Exp1_SingleTask_TiTo_Subj17-24,20,23,dx,BlockProc1,150,z,678,0,4,z,SHORT
Exp1_SingleTask_TiTo_Subj17-24,20,23,dx,BlockProc1,100,m,637,0,6,m,SHORT
Exp1_SingleTask_TiTo_Subj17-24,20,23,dx,BlockProc1,150,m,472,0,8,m,SHORT
Exp1_SingleTask_TiTo_Subj17-24,20,23,dx,BlockProc1,150,m,534,0,7,m,SHORT
Exp1_SingleTask_TiTo_Subj17-24,20,23,dx,BlockProc1,300,m,543,100,7,m,LONG
Exp1_SingleTask_TiTo_Subj17-24,20,23,dx,BlockProc1,150,z,490,0,2,z,SHORT
Exp1_SingleTask_TiTo_Subj17-24,20,23,dx,BlockProc1,300,m,546,0,8,m,LONG
Exp1_SingleTask_TiTo_Subj17-24,20,23,dx,BlockProc1,150,m,578,100,7,m,SHORT
Exp1_SingleTask_TiTo_Subj17-24,20,23,dx,BlockProc2,300,z,581,100,2,z,LONG
Exp1_SingleTask_TiTo_Subj17-24,20,23,dx,BlockProc2,100,z,436,0,4,m,SHORT
Exp1_SingleTask_TiTo_Subj17-24,20,23,dx,BlockProc2,300,z,458,100,3,z,LONG
Exp1_SingleTask_TiTo_Subj17-24,20,23,dx,BlockProc2,150,z,486,100,2,z,SHORT
Exp1_SingleTask_TiTo_Subj17-24,20,23,dx,BlockProc2,350,z,493,100,4,z,LONG
Exp1_SingleTask_TiTo_Subj17-24,20,23,dx,BlockProc2,150,m,484,100,8,m,SHORT
Exp1_SingleTask_TiTo_Subj17-24,20,23,dx,BlockProc2,350,m,490,0,6,m,LONG
Exp1_SingleTask_TiTo_Subj17-24,20,23,dx,BlockProc2,350,m,417,100,6,m,LONG
Exp1_SingleTask_TiTo_Subj17-24,20,23,dx,BlockProc2,150,m,457,0,8,m,SHORT
Exp1_SingleTask_TiTo_Subj17-24,20,23,dx,BlockProc2,350,z,455,0,4,z,LONG
Exp1_SingleTask_TiTo_Subj17-24,20,23,dx,BlockProc2,300,z,471,0,4,z,LONG
Exp1_SingleTask_TiTo_Subj17-24,20,23,dx,BlockProc2,150,m,722,0,6,m,SHORT
Exp1_SingleTask_TiTo_Subj17-24,20,23,dx,BlockProc2,100,z,526,100,2,z,SHORT
Exp1_SingleTask_TiTo_Subj17-24,20,23,dx,BlockProc2,300,z,415,0,2,z,LONG
Exp1_SingleTask_TiTo_Subj17-24,20,23,dx,BlockProc2,150,z,627,0,4,z,SHORT
Exp1_SingleTask_TiTo_Subj17-24,20,23,dx,BlockProc2,350,z,512,100,2,z,LONG
Exp1_SingleTask_TiTo_Subj17-24,20,23,dx,BlockProc2,300,m,453,0,8,m,LONG
Exp1_SingleTask_TiTo_Subj17-24,20,23,dx,BlockProc2,350,z,539,0,3,z,LONG
Exp1_SingleTask_TiTo_Subj17-24,20,23,dx,BlockProc2,100,m,568,0,8,m,SHORT
Exp1_SingleTask_TiTo_Subj17-24,20,23,dx,BlockProc2,100,m,508,100,8,m,SHORT
Exp1_SingleTask_TiTo_Subj17-24,20,23,dx,BlockProc2,100,z,486,0,2,z,SHORT
Exp1_SingleTask_TiTo_Subj17-24,20,23,dx,BlockProc2,150,z,535,0,2,z,SHORT
Exp1_SingleTask_TiTo_Subj17-24,20,23,dx,BlockProc2,100,m,662,100,7,m,SHORT
Exp1_SingleTask_TiTo_Subj17-24,20,23,dx,BlockProc2,100,z,579,100,4,z,SHORT
Exp1_SingleTask_TiTo_Subj17-24,20,23,dx,BlockProc2,150,z,532,0,3,z,SHORT
Exp1_SingleTask_TiTo_Subj17-24,20,23,dx,BlockProc2,100,z,471,0,3,z,SHORT
Exp1_SingleTask_TiTo_Subj17-24,20,23,dx,BlockProc2,350,z,481,100,3,z,LONG
Exp1_SingleTask_TiTo_Subj17-24,20,23,dx,BlockProc2,300,m,641,100,6,m,LONG
Exp1_SingleTask_TiTo_Subj17-24,20,23,dx,BlockProc2,150,z,644,100,4,z,SHORT
Exp1_SingleTask_TiTo_Subj17-24,20,23,dx,BlockProc2,300,m,597,0,6,m,LONG
Exp1_SingleTask_TiTo_Subj17-24,20,23,dx,BlockProc2,100,m,611,0,7,m,SHORT
Exp1_SingleTask_TiTo_Subj17-24,20,23,dx,BlockProc2,300,m,471,100,7,m,LONG
Exp1_SingleTask_TiTo_Subj17-24,20,23,dx,BlockProc2,300,z,420,100,4,z,LONG
Exp1_SingleTask_TiTo_Subj17-24,20,23,dx,BlockProc2,350,m,459,0,7,m,LONG
Exp1_SingleTask_TiTo_Subj17-24,20,23,dx,BlockProc2,300,z,393,0,3,z,LONG
Exp1_SingleTask_TiTo_Subj17-24,20,23,dx,BlockProc2,300,m,510,100,8,m,LONG
Exp1_SingleTask_TiTo_Subj17-24,20,23,dx,BlockProc2,350,z,454,0,2,z,LONG
Exp1_SingleTask_TiTo_Subj17-24,20,23,dx,BlockProc2,100,m,520,0,6,space,SHORT
Exp1_SingleTask_TiTo_Subj17-24,20,23,dx,BlockProc2,150,m,699,100,7,m,SHORT
Exp1_SingleTask_TiTo_Subj17-24,20,23,dx,BlockProc2,150,m,738,100,6,m,SHORT
Exp1_SingleTask_TiTo_Subj17-24,20,23,dx,BlockProc2,150,m,602,0,7,m,SHORT
Exp1_SingleTask_TiTo_Subj17-24,20,23,dx,BlockProc2,300,m,513,0,7,m,LONG
Exp1_SingleTask_TiTo_Subj17-24,20,23,dx,BlockProc2,100,z,838,100,3,z,SHORT
Exp1_SingleTask_TiTo_Subj17-24,20,23,dx,BlockProc2,350,m,591,100,8,m,LONG
Exp1_SingleTask_TiTo_Subj17-24,20,23,dx,BlockProc2,150,z,566,100,3,m,SHORT
Exp1_SingleTask_TiTo_Subj17-24,20,23,dx,BlockProc2,350,m,655,0,8,m,LONG
Exp1_SingleTask_TiTo_Subj17-24,20,23,dx,BlockProc2,350,m,572,100,7,m,LONG
Exp1_SingleTask_TiTo_Subj17-24,20,23,dx,BlockProc2,100,m,762,100,6,m,SHORT
Exp1_SingleTask_TiTo_Subj17-24,20,23,dx,BlockProc2,300,m,598,100,8,m,LONG
Exp1_SingleTask_TiTo_Subj17-24,20,23,dx,BlockProc2,300,z,565,100,3,z,LONG
Exp1_SingleTask_TiTo_Subj17-24,20,23,dx,BlockProc2,100,m,1008,0,6,m,SHORT
Exp1_SingleTask_TiTo_Subj17-24,20,23,dx,BlockProc2,350,z,541,100,2,z,LONG
Exp1_SingleTask_TiTo_Subj17-24,20,23,dx,BlockProc2,300,z,544,0,2,z,LONG
Exp1_SingleTask_TiTo_Subj17-24,20,23,dx,BlockProc2,150,m,625,100,8,m,SHORT
Exp1_SingleTask_TiTo_Subj17-24,20,23,dx,BlockProc2,300,m,548,0,8,m,LONG
Exp1_SingleTask_TiTo_Subj17-24,20,23,dx,BlockProc2,150,m,900,100,6,m,SHORT
Exp1_SingleTask_TiTo_Subj17-24,20,23,dx,BlockProc2,300,m,547,100,6,m,LONG
Exp1_SingleTask_TiTo_Subj17-24,20,23,dx,BlockProc2,100,z,601,0,3,z,SHORT
